sysTime,roll,pitch,yaw,ax,ay,az
11:22:42:17:8462,2.61,-3.22,-78.74,-0.04,0.05,0.97
11:22:42:17:8578,2.58,-3.23,-78.74,-0.05,0.06,1.0
11:22:42:17:8671,2.59,-3.23,-78.74,-0.04,0.03,1.0
11:22:42:17:8765,2.6,-3.23,-78.74,-0.06,0.04,0.98
11:22:42:17:8877,2.6,-3.23,-78.75,-0.06,0.05,0.99
11:22:42:17:8973,2.59,-3.23,-78.76,-0.05,0.05,1.0
11:22:42:18:9070,2.59,-3.23,-78.77,-0.06,0.03,0.98
11:22:42:19:10372,2.58,-3.25,-78.73,-0.07,0.03,0.99
11:22:42:19:10481,2.6,-3.25,-78.76,-0.07,0.03,1.0
11:22:42:19:10592,2.6,-3.24,-78.76,-0.07,0.04,0.97
11:22:42:19:10671,2.6,-3.25,-78.77,-0.04,0.04,0.98
11:22:42:19:10766,2.58,-3.24,-78.78,-0.06,0.05,0.99
11:22:42:19:10862,2.59,-3.24,-78.78,-0.06,0.02,0.99
11:22:42:19:10959,2.6,-3.25,-78.78,-0.07,0.04,0.97
11:22:42:20:11069,2.61,-3.24,-78.79,-0.04,0.05,0.98
11:22:42:21:12387,2.59,-3.24,-78.89,-0.04,0.05,0.98
11:22:42:21:12467,2.58,-3.24,-78.89,-0.05,0.06,0.99
11:22:42:21:12564,2.58,-3.24,-78.9,-0.05,0.03,1.0
11:22:42:21:12675,2.6,-3.24,-78.89,-0.06,0.04,0.97
11:22:42:21:12786,2.6,-3.23,-78.88,-0.05,0.04,0.99
11:22:42:21:12865,2.59,-3.24,-78.88,-0.05,0.05,0.99
11:22:42:21:12962,2.59,-3.24,-78.87,-0.06,0.03,0.98
11:22:42:22:13089,2.6,-3.24,-78.88,-0.06,0.03,0.99
11:22:42:23:14380,2.61,-3.26,-78.5,-0.06,0.03,0.99
11:22:42:23:14475,2.6,-3.24,-78.48,-0.07,0.04,0.97
11:22:42:23:14603,2.59,-3.26,-78.47,-0.05,0.05,0.98
11:22:42:23:14667,2.58,-3.27,-78.46,-0.06,0.05,0.99
11:22:42:23:14778,2.59,-3.26,-78.45,-0.05,0.02,0.99
11:22:42:23:14874,2.6,-3.25,-78.46,-0.06,0.04,0.97
11:22:42:23:14972,2.61,-3.24,-78.46,-0.03,0.05,0.97
11:22:42:24:15068,2.6,-3.25,-78.45,-0.05,0.06,0.99
11:22:42:25:16382,2.6,-3.22,-78.43,-0.05,0.06,0.99
11:22:42:25:16461,2.6,-3.22,-78.42,-0.04,0.03,1.0
11:22:42:25:16575,2.62,-3.23,-78.41,-0.06,0.05,0.97
11:22:42:25:16654,2.63,-3.22,-78.41,-0.06,0.05,0.98
11:22:42:25:16781,2.62,-3.23,-78.4,-0.05,0.05,0.99
11:22:42:25:16879,2.62,-3.23,-78.39,-0.06,0.03,0.98
11:22:42:25:16991,2.63,-3.23,-78.39,-0.07,0.03,0.99
11:22:42:26:17070,2.63,-3.22,-78.33,-0.07,0.04,0.97
11:22:42:27:18374,2.59,-3.26,-77.77,-0.06,0.04,0.98
11:22:42:27:18486,2.59,-3.27,-77.74,-0.05,0.06,0.98
11:22:42:27:18566,2.59,-3.27,-77.73,-0.06,0.03,0.99
11:22:42:27:18678,2.59,-3.27,-77.71,-0.06,0.03,0.98
11:22:42:27:18773,2.6,-3.26,-77.68,-0.06,0.04,0.97
11:22:42:27:18871,2.61,-3.25,-77.67,-0.03,0.05,0.99
11:22:42:27:18966,2.59,-3.26,-77.64,-0.06,0.05,0.99
11:22:42:28:19080,2.6,-3.26,-77.62,-0.05,0.03,1.0
11:22:42:29:20373,2.61,-3.22,-77.54,-0.04,0.02,1.0
11:22:42:29:20454,2.62,-3.21,-77.55,-0.06,0.05,0.97
11:22:42:29:20564,2.61,-3.22,-77.53,-0.04,0.05,0.99
11:22:42:29:20662,2.6,-3.22,-77.53,-0.05,0.04,0.99
11:22:42:29:20759,2.61,-3.2,-77.61,-0.04,0.02,0.99
11:22:42:29:20869,2.62,-3.18,-77.73,-0.07,0.03,0.97
11:22:42:29:20966,2.62,-3.15,-77.85,-0.05,0.03,0.97
11:22:42:30:21062,2.62,-3.14,-77.95,-0.05,0.04,0.99
11:22:42:31:22382,2.61,-3.17,-78.69,-0.06,0.06,0.99
11:22:42:31:22479,2.61,-3.18,-78.71,-0.05,0.03,0.99
11:22:42:31:22574,2.61,-3.18,-78.75,-0.06,0.03,0.97
11:22:42:31:22669,2.61,-3.17,-78.78,-0.06,0.04,0.99
11:22:42:31:22766,2.61,-3.18,-78.8,-0.04,0.06,0.98
11:22:42:31:22862,2.6,-3.18,-78.82,-0.06,0.04,0.98
11:22:42:31:22973,2.61,-3.18,-78.84,-0.06,0.02,0.99
11:22:42:32:23070,2.62,-3.18,-78.86,-0.07,0.04,0.97
11:22:42:33:24376,2.62,-3.19,-78.96,-0.07,0.04,0.98
11:22:42:33:24468,2.61,-3.2,-78.97,-0.05,0.02,0.98
11:22:42:33:24595,2.6,-3.23,-78.84,-0.07,0.04,0.99
11:22:42:33:24677,2.6,-3.26,-78.71,-0.06,0.03,1.0
11:22:42:33:24772,2.6,-3.28,-78.57,-0.06,0.05,0.98
11:22:42:33:24884,2.59,-3.29,-78.42,-0.03,0.04,0.97
11:22:42:33:24964,2.59,-3.31,-78.29,-0.04,0.05,0.99
11:22:42:34:25075,2.59,-3.32,-78.18,-0.05,0.02,1.0
11:22:42:35:26375,2.61,-3.18,-78.16,-0.05,0.03,0.99
11:22:42:35:26506,2.61,-3.18,-78.22,-0.06,0.04,0.96
11:22:42:35:26583,2.62,-3.16,-78.3,-0.06,0.04,0.98
11:22:42:35:26680,2.61,-3.16,-78.38,-0.05,0.05,0.99
11:22:42:35:26774,2.6,-3.16,-78.42,-0.06,0.03,0.99
11:22:42:35:26870,2.62,-3.16,-78.48,-0.06,0.03,1.0
11:22:42:35:26982,2.62,-3.15,-78.53,-0.07,0.04,0.97
11:22:42:36:27079,2.61,-3.16,-78.59,-0.04,0.04,0.97
11:22:42:37:28364,2.6,-3.21,-78.93,-0.05,0.05,0.99
11:22:42:37:28474,2.59,-3.21,-78.95,-0.06,0.04,0.99
11:22:42:37:28570,2.59,-3.22,-78.98,-0.06,0.02,0.98
11:22:42:37:28667,2.6,-3.22,-78.99,-0.06,0.04,0.97
11:22:42:37:28794,2.6,-3.24,-78.92,-0.05,0.05,0.99
11:22:42:37:28873,2.59,-3.24,-78.9,-0.05,0.06,0.99
11:22:42:37:28969,2.59,-3.25,-78.86,-0.05,0.03,1.0
11:22:42:38:29067,2.6,-3.25,-78.85,-0.06,0.04,0.98
11:22:42:39:30382,2.6,-3.22,-78.81,-0.06,0.04,0.97
11:22:42:39:30477,2.6,-3.21,-78.81,-0.06,0.05,0.98
11:22:42:39:30558,2.6,-3.22,-78.8,-0.06,0.05,0.99
11:22:42:39:30684,2.59,-3.23,-78.8,-0.06,0.04,0.99
11:22:42:39:30781,2.61,-3.23,-78.8,-0.07,0.03,0.99
11:22:42:39:30860,2.61,-3.22,-78.79,-0.07,0.04,0.97
11:22:42:39:30988,2.6,-3.22,-78.78,-0.05,0.04,0.99
11:22:42:39:31052,2.59,-3.22,-78.79,-0.06,0.04,0.99
11:22:42:41:32381,2.59,-3.24,-78.79,-0.06,0.04,0.99
11:22:42:41:32461,2.6,-3.23,-78.8,-0.06,0.02,0.98
11:22:42:41:32570,2.6,-3.23,-78.8,-0.06,0.04,0.98
11:22:42:41:32667,2.6,-3.22,-78.8,-0.03,0.05,0.97
11:22:42:41:32764,2.59,-3.23,-78.81,-0.05,0.05,0.98
11:22:42:41:32861,2.6,-3.23,-78.8,-0.05,0.03,0.99
11:22:42:41:32987,2.61,-3.23,-78.82,-0.07,0.05,0.97
11:22:42:41:33052,2.61,-3.23,-78.83,-0.03,0.02,0.97
11:22:42:43:34406,2.58,-3.35,-77.18,-0.04,0.05,0.98
11:22:42:43:34483,2.58,-3.35,-77.11,-0.06,0.05,0.99
11:22:42:43:34579,2.57,-3.35,-77.04,-0.06,0.03,0.99
11:22:42:43:34675,2.59,-3.35,-76.96,-0.07,0.04,0.98
11:22:42:43:34772,2.59,-3.33,-76.93,-0.06,0.04,0.97
11:22:42:43:34868,2.58,-3.33,-76.88,-0.05,0.06,0.98
11:22:42:43:34963,2.57,-3.32,-76.83,-0.05,0.03,0.99
11:22:42:44:35074,2.58,-3.32,-76.8,-0.06,0.03,0.98
11:22:42:45:36387,2.62,-3.26,-76.55,-0.06,0.03,0.98
11:22:42:45:36469,2.62,-3.25,-76.53,-0.06,0.04,0.99
11:22:42:45:36566,2.61,-3.25,-76.53,-0.04,0.05,0.98
11:22:42:45:36664,2.6,-3.25,-76.52,-0.07,0.03,0.98
11:22:42:45:36789,2.62,-3.26,-76.5,-0.06,0.03,1.0
11:22:42:45:36869,2.62,-3.23,-76.6,-0.08,0.04,0.97
11:22:42:45:36965,2.62,-3.19,-76.79,-0.05,0.04,0.98
11:22:42:46:37077,2.62,-3.16,-76.96,-0.06,0.05,0.99
11:22:42:47:38377,2.62,-3.15,-78.17,-0.06,0.05,0.99
11:22:42:47:38467,2.62,-3.15,-78.22,-0.06,0.02,0.99
11:22:42:47:38566,2.63,-3.16,-78.28,-0.07,0.05,0.98
11:22:42:47:38661,2.63,-3.15,-78.32,-0.04,0.04,0.98
11:22:42:47:38770,2.61,-3.17,-78.35,-0.05,0.06,1.0
11:22:42:47:38868,2.61,-3.18,-78.38,-0.05,0.03,1.0
11:22:42:47:38963,2.63,-3.18,-78.42,-0.06,0.04,0.97
11:22:42:48:39076,2.62,-3.18,-78.46,-0.05,0.05,0.99
11:22:42:49:40379,2.61,-3.21,-78.58,-0.06,0.05,0.99
11:22:42:49:40476,2.6,-3.22,-78.58,-0.05,0.04,0.98
11:22:42:49:40571,2.59,-3.25,-78.5,-0.07,0.03,0.98
11:22:42:49:40668,2.6,-3.25,-78.51,-0.06,0.03,1.0
11:22:42:49:40765,2.6,-3.24,-78.53,-0.07,0.04,0.97
11:22:42:49:40875,2.6,-3.24,-78.54,-0.04,0.04,0.98
11:22:42:49:40972,2.59,-3.24,-78.54,-0.06,0.05,0.99
11:22:42:50:41067,2.6,-3.24,-78.56,-0.05,0.03,0.99
11:22:42:51:42372,2.6,-3.23,-78.68,-0.05,0.03,0.99
11:22:42:51:42482,2.61,-3.22,-78.7,-0.06,0.04,0.98
11:22:42:51:42559,2.62,-3.22,-78.71,-0.04,0.05,0.98
11:22:42:51:42671,2.6,-3.23,-78.71,-0.05,0.05,1.0
11:22:42:51:42767,2.6,-3.24,-78.7,-0.05,0.03,1.0
11:22:42:51:42880,2.61,-3.23,-78.7,-0.06,0.04,0.97
11:22:42:51:42976,2.61,-3.23,-78.7,-0.06,0.05,0.98
11:22:42:52:43070,2.59,-3.23,-78.7,-0.05,0.04,1.0
11:22:42:53:44384,2.58,-3.25,-78.27,-0.05,0.06,0.98
11:22:42:53:44465,2.58,-3.24,-78.27,-0.06,0.02,0.99
11:22:42:53:44560,2.6,-3.24,-78.26,-0.06,0.03,0.99
11:22:42:53:44673,2.6,-3.22,-78.27,-0.07,0.04,0.97
11:22:42:53:44784,2.6,-3.22,-78.29,-0.05,0.05,0.98
11:22:42:53:44880,2.58,-3.2,-78.28,-0.01,0.05,0.99
11:22:42:53:44976,2.4,-2.97,-78.27,-0.02,-0.0,0.98
11:22:42:54:45073,2.09,-2.59,-78.27,-0.01,0.01,0.98
11:22:42:55:46476,-2.62,2.54,-78.07,0.05,-0.09,0.94
11:22:42:55:46573,-2.91,3.0,-78.03,0.09,-0.03,1.02
11:22:42:55:46670,-3.25,3.42,-77.99,0.09,-0.13,0.95
11:22:42:55:46764,-3.63,3.77,-77.95,0.11,-0.08,0.96
11:22:42:55:46877,-4.24,4.08,-77.9,0.11,-0.11,0.95
11:22:42:55:46972,-4.81,4.24,-77.82,0.1,-0.11,1.02
11:22:42:56:47085,-5.09,4.48,-77.71,0.08,-0.14,1.0
11:22:42:57:48472,-4.03,3.28,-76.75,0.1,-0.12,0.99
11:22:42:57:48568,-4.24,3.33,-76.7,0.03,-0.04,1.03
11:22:42:57:48696,-4.35,3.42,-76.66,0.11,-0.07,1.04
11:22:42:57:48775,-4.17,3.69,-76.56,0.08,-0.1,0.95
11:22:42:57:48872,-4.15,3.79,-76.45,0.05,-0.05,0.99
11:22:42:57:48983,-4.28,3.8,-76.34,0.09,-0.1,0.95
11:22:42:58:49095,-4.34,3.77,-76.17,-0.12,-0.06,1.09
11:22:42:59:50485,-2.11,1.12,-74.69,-0.02,0.0,0.94
11:22:42:59:50581,-1.52,0.67,-74.69,-0.08,-0.04,1.06
11:22:42:59:50661,-1.23,0.41,-74.75,-0.04,0.03,1.0
11:22:42:59:50756,-1.06,0.12,-74.77,0.0,0.08,1.03
11:22:42:59:50883,-1.01,-0.05,-74.8,-0.03,-0.01,1.01
11:22:42:59:50964,-0.85,-0.09,-74.85,-0.04,-0.0,0.97
11:22:43:0:51062,-0.83,-0.31,-74.86,-0.06,-0.04,0.99
11:22:43:1:52491,-0.12,0.06,-74.62,0.03,-0.04,0.91
11:22:43:1:52572,-0.28,0.32,-74.6,-0.01,-0.02,0.98
11:22:43:1:52684,-0.73,0.54,-74.55,-0.06,-0.16,1.02
11:22:43:1:52780,-0.94,0.96,-74.53,-0.01,-0.13,0.95
11:22:43:1:52892,-1.26,1.06,-74.52,0.09,-0.11,1.01
11:22:43:1:52988,-1.35,1.17,-74.51,0.04,0.0,1.04
11:22:43:2:53100,-1.5,0.74,-74.52,-0.03,0.01,1.02
11:22:43:3:54485,-0.38,-0.67,-74.84,-0.01,0.04,1.07
11:22:43:3:54597,-0.25,-0.75,-74.91,-0.01,0.04,0.91
11:22:43:3:54678,-0.51,-0.64,-74.99,0.03,0.02,1.04
11:22:43:3:54774,-0.55,-0.97,-75.07,0.02,-0.04,0.97
11:22:43:3:54886,-0.28,-1.67,-75.18,-0.07,-0.03,0.98
11:22:43:3:54968,-0.14,-2.05,-75.29,-0.1,-0.01,1.0
11:22:43:4:55093,0.1,-1.99,-75.4,-0.02,0.11,1.0
11:22:43:5:56475,-0.49,-0.66,-76.64,0.05,-0.07,0.9
11:22:43:5:56585,-0.73,-0.53,-76.65,-0.04,0.03,1.06
11:22:43:5:56681,-0.9,-0.22,-76.59,0.02,-0.0,1.05
11:22:43:5:56794,-1.31,0.16,-76.48,0.04,0.0,0.98
11:22:43:5:56874,-1.62,0.33,-76.38,0.03,-0.12,0.93
11:22:43:5:56986,-1.66,0.38,-76.28,0.03,-0.05,0.96
11:22:43:6:57082,-1.77,0.34,-76.17,-0.0,-0.06,0.99
11:22:43:7:58496,-0.32,-0.75,-75.53,0.02,-0.01,0.9
11:22:43:7:58574,-0.3,-0.57,-75.74,0.0,-0.02,0.96
11:22:43:7:58686,-0.08,-0.53,-75.99,-0.0,0.02,0.99
11:22:43:7:58798,0.16,-0.69,-76.29,-0.15,-0.08,1.04
11:22:43:7:58878,0.18,-0.7,-76.56,0.01,0.01,0.88
11:22:43:7:58973,0.12,-0.8,-76.68,0.03,0.01,1.06
11:22:43:8:59085,0.12,-0.84,-76.63,0.01,0.11,0.99
11:22:43:9:60481,2.58,-3.48,-75.85,-0.08,0.11,1.04
11:22:43:9:60591,2.68,-3.71,-75.69,-0.06,0.05,0.96
11:22:43:9:60688,2.68,-3.81,-75.57,-0.09,0.08,0.95
11:22:43:9:60785,2.75,-4.0,-75.48,-0.03,0.02,1.0
11:22:43:9:60882,3.02,-4.16,-75.44,-0.12,0.15,0.96
11:22:43:9:60961,3.33,-4.66,-75.42,-0.12,0.02,1.0
11:22:43:10:61075,3.75,-5.07,-75.47,-0.07,0.13,0.98
11:22:43:11:62480,4.96,-6.23,-78.96,-0.14,0.07,0.95
11:22:43:11:62576,5.17,-5.98,-79.21,-0.07,0.1,0.98
11:22:43:11:62672,5.29,-6.09,-79.44,-0.13,0.12,0.98
11:22:43:11:62783,5.23,-6.2,-79.66,-0.13,0.05,0.92
11:22:43:11:62897,5.33,-6.25,-79.86,-0.11,0.05,0.95
11:22:43:11:62975,5.6,-6.39,-80.08,-0.09,0.12,0.99
11:22:43:12:63071,5.52,-6.48,-80.27,-0.15,0.1,0.98
11:22:43:13:64475,4.94,-6.18,-80.49,-0.14,0.02,1.05
11:22:43:13:64571,4.7,-6.06,-80.42,-0.07,0.04,0.87
11:22:43:13:64684,4.72,-5.92,-80.38,-0.08,0.11,0.97
11:22:43:13:64780,4.74,-5.89,-80.4,-0.13,0.07,1.02
11:22:43:13:64876,4.89,-5.94,-80.56,-0.11,0.08,1.0
11:22:43:13:64972,5.29,-6.25,-80.84,-0.12,0.14,0.96
11:22:43:14:65084,5.42,-6.71,-80.96,-0.13,0.1,0.97
11:22:43:15:66462,6.58,-7.88,-80.68,-0.14,0.09,1.02
11:22:43:15:66558,6.76,-7.74,-80.59,-0.16,0.14,1.01
11:22:43:15:66686,6.77,-7.69,-80.44,-0.13,0.11,0.96
11:22:43:15:66782,6.77,-7.77,-80.35,-0.11,0.13,0.97
11:22:43:15:66878,6.69,-7.91,-80.2,-0.17,0.11,0.97
11:22:43:15:66975,6.69,-8.03,-80.08,-0.13,0.11,0.95
11:22:43:16:67070,6.64,-8.17,-79.92,-0.14,0.13,1.01
11:22:43:17:68378,5.67,-6.65,-78.47,-0.09,0.09,1.0
11:22:43:17:68486,5.61,-6.52,-78.41,-0.06,0.1,0.93
11:22:43:17:68568,5.4,-6.71,-78.32,-0.12,0.1,1.01
11:22:43:17:68678,5.29,-6.61,-78.36,-0.12,0.06,1.01
11:22:43:17:68774,5.23,-6.46,-78.36,-0.09,0.08,0.96
11:22:43:17:68871,5.32,-6.28,-78.38,-0.11,0.1,1.0
11:22:43:17:68982,5.4,-6.18,-78.43,-0.14,0.08,1.01
11:22:43:18:69063,5.27,-6.25,-78.41,-0.09,0.08,1.0
11:22:43:19:70490,4.3,-5.31,-77.47,-0.1,0.08,0.97
11:22:43:19:70571,4.37,-5.13,-77.41,-0.09,0.08,0.98
11:22:43:19:70668,4.3,-5.19,-77.34,-0.11,0.06,0.99
11:22:43:19:70778,4.14,-5.18,-77.24,-0.08,0.06,0.98
11:22:43:19:70874,4.02,-4.96,-77.19,-0.05,0.06,0.99
11:22:43:19:70969,3.86,-4.67,-77.08,-0.05,0.03,0.99
11:22:43:20:71066,3.67,-4.37,-76.97,-0.06,0.05,0.98
11:22:43:21:72454,3.18,-4.16,-76.43,-0.06,0.04,0.99
11:22:43:21:72566,3.22,-4.22,-76.43,-0.08,0.05,1.01
11:22:43:21:72679,3.31,-4.31,-76.43,-0.08,0.05,0.96
11:22:43:21:72774,3.41,-4.44,-76.42,-0.08,0.06,0.97
11:22:43:21:72887,2.97,-3.94,-76.38,0.0,0.0,0.99
11:22:43:21:72966,2.45,-3.35,-76.31,-0.03,0.0,0.98
11:22:43:22:73078,2.44,-3.33,-76.31,-0.07,0.04,0.99
11:22:43:23:74378,1.56,-2.33,-76.02,-0.03,0.03,0.98
11:22:43:23:74475,1.58,-2.33,-75.98,-0.05,0.02,1.0
11:22:43:23:74571,3.58,-1.13,-75.4,0.13,-0.18,1.23
11:22:43:23:74666,1.95,0.57,-74.23,0.04,0.06,0.96
11:22:43:23:74778,3.03,0.75,-72.82,0.06,0.09,0.88
11:22:43:23:74875,2.06,-1.22,-73.67,-0.01,0.0,0.97
11:22:43:23:74989,2.35,-4.23,-74.7,-0.05,0.04,0.99
11:22:43:24:75066,2.69,-4.47,-76.36,-0.07,0.03,0.88
11:22:43:25:76381,8.34,-20.25,-71.16,-0.32,0.12,0.92
11:22:43:25:76477,4.66,-19.23,-70.27,-0.37,0.06,0.99
11:22:43:25:76574,0.03,-17.16,-69.69,-0.31,-0.06,1.0
11:22:43:25:76669,-1.78,-13.61,-69.7,-0.18,0.03,0.94
11:22:43:25:76765,-0.86,-11.55,-70.95,-0.19,0.08,0.99
11:22:43:25:76876,-1.05,-9.23,-71.91,-0.08,-0.06,0.94
11:22:43:25:76974,-1.05,-6.27,-73.62,-0.01,0.06,0.9
11:22:43:25:77053,-0.8,-4.93,-75.03,-0.0,0.08,0.96
11:22:43:27:78375,6.08,0.2,-81.44,0.0,0.06,0.96
11:22:43:27:78472,5.77,0.68,-81.97,-0.01,0.16,1.02
11:22:43:27:78599,5.14,0.81,-82.34,0.0,0.1,1.01
11:22:43:27:78680,4.52,0.76,-82.72,0.01,0.1,1.01
11:22:43:27:78790,3.49,0.12,-83.33,-0.01,0.08,0.91
11:22:43:27:78886,3.42,-0.26,-82.97,-0.04,0.09,0.98
11:22:43:27:78966,3.41,-0.29,-83.06,-0.02,0.06,1.0
11:22:43:28:79064,3.43,0.68,-82.98,-0.06,0.06,1.01
11:22:43:29:80377,4.92,6.45,-80.69,0.11,0.06,0.98
11:22:43:29:80458,4.91,6.46,-80.68,0.09,0.07,0.98
11:22:43:29:80585,4.91,6.47,-80.68,0.13,0.08,0.98
11:22:43:29:80682,4.89,6.46,-80.7,0.11,0.09,0.98
11:22:43:29:80762,4.88,6.45,-80.69,0.1,0.06,0.98
11:22:43:29:80889,4.9,6.47,-80.69,0.09,0.08,0.96
11:22:43:29:80968,4.89,6.47,-80.69,0.14,0.07,0.98
11:22:43:30:81095,4.86,6.46,-80.7,0.12,0.1,0.98
11:22:43:31:82381,4.86,6.45,-80.63,0.12,0.1,0.97
11:22:43:31:82478,4.86,6.47,-80.63,0.12,0.07,0.99
11:22:43:31:82574,4.88,6.47,-80.65,0.11,0.06,0.98
11:22:43:31:82686,4.88,6.48,-80.67,0.1,0.07,0.98
11:22:43:31:82780,4.87,6.48,-80.66,0.13,0.09,0.96
11:22:43:31:82877,4.86,6.48,-80.66,0.12,0.09,0.99
11:22:43:31:82974,4.85,6.47,-80.66,0.11,0.06,0.97
11:22:43:32:83086,4.86,6.47,-80.65,0.1,0.09,0.97
11:22:43:33:84375,4.88,6.5,-81.25,0.11,0.08,0.97
11:22:43:33:84456,4.88,6.51,-81.26,0.12,0.08,0.97
11:22:43:33:84584,4.87,6.48,-81.27,0.12,0.1,0.98
11:22:43:33:84663,4.86,6.49,-81.27,0.11,0.08,0.97
11:22:43:33:84760,4.88,6.48,-81.28,0.1,0.07,0.98
11:22:43:33:84887,4.88,6.49,-81.29,0.09,0.07,0.96
11:22:43:33:84968,4.87,6.5,-81.31,0.12,0.09,0.98
11:22:43:34:85063,4.86,6.49,-81.32,0.11,0.09,0.99
11:22:43:35:86373,4.86,6.48,-81.24,0.11,0.09,0.97
11:22:43:35:86469,4.87,6.48,-81.23,0.12,0.06,0.98
11:22:43:35:86565,4.88,6.47,-81.2,0.09,0.08,0.98
11:22:43:35:86660,4.88,6.48,-81.15,0.13,0.08,0.97
11:22:43:35:86773,4.87,6.46,-81.1,0.12,0.1,0.97
11:22:43:35:86869,4.86,6.46,-81.06,0.12,0.07,0.99
11:22:43:35:86965,4.87,6.45,-81.02,0.11,0.07,0.98
11:22:43:36:87092,4.88,6.47,-80.99,0.1,0.07,0.96
11:22:43:37:88390,4.88,6.48,-80.65,0.12,0.09,0.97
11:22:43:37:88482,4.87,6.47,-80.65,0.13,0.09,0.97
11:22:43:37:88578,4.86,6.46,-80.65,0.11,0.08,0.99
11:22:43:37:88676,4.87,6.46,-80.65,0.11,0.06,0.99
11:22:43:37:88770,4.87,6.47,-80.68,0.09,0.08,0.97
11:22:43:37:88866,4.87,6.48,-80.69,0.13,0.09,0.97
11:22:43:37:88963,4.86,6.47,-80.68,0.11,0.09,0.97
11:22:43:38:89058,4.86,6.47,-80.68,0.11,0.05,0.97
11:22:43:39:90406,4.87,6.46,-80.71,0.1,0.05,0.97
11:22:43:39:90452,4.88,6.48,-80.72,0.08,0.08,0.97
11:22:43:39:90564,4.88,6.48,-80.73,0.13,0.09,0.96
11:22:43:39:90677,4.87,6.47,-80.72,0.12,0.1,1.0
11:22:43:39:90772,4.87,6.46,-80.72,0.12,0.04,0.97
11:22:43:39:90870,4.87,6.46,-80.71,0.1,0.08,0.97
11:22:43:39:90980,4.88,6.48,-80.71,0.13,0.09,0.97
11:22:43:40:91062,4.87,6.46,-80.71,0.12,0.09,0.98
11:22:43:41:92378,4.88,6.47,-80.75,0.12,0.09,0.98
11:22:43:41:92474,4.88,6.47,-80.74,0.12,0.07,0.98
11:22:43:41:92570,4.88,6.47,-80.74,0.1,0.07,0.99
11:22:43:41:92666,4.87,6.48,-80.72,0.1,0.07,0.97
11:22:43:41:92762,4.87,6.47,-80.71,0.12,0.09,0.96
11:22:43:41:92872,4.86,6.47,-80.71,0.11,0.08,0.99
11:22:43:41:92968,4.88,6.47,-80.71,0.11,0.06,0.98
11:22:43:42:93065,4.89,6.48,-80.72,0.1,0.07,0.97
11:22:43:43:94375,2.26,8.69,-81.08,0.18,-0.02,0.96
11:22:43:43:94466,1.6,9.22,-81.17,0.22,-0.01,0.97
11:22:43:43:94577,1.0,9.64,-81.25,0.21,-0.02,0.97
11:22:43:43:94674,0.6,9.91,-81.26,0.21,-0.04,0.99
11:22:43:43:94801,0.28,10.23,-81.27,0.2,-0.05,0.98
11:22:43:43:94865,0.06,10.62,-81.27,0.19,-0.01,0.97
11:22:43:43:94977,-0.15,10.66,-81.27,0.17,-0.02,0.97
11:22:43:44:95058,-0.25,10.55,-81.24,0.16,-0.01,0.96
11:22:43:45:96460,2.68,8.31,-80.73,0.13,-0.01,0.99
11:22:43:45:96573,2.61,8.33,-80.56,0.11,0.04,0.96
11:22:43:45:96684,2.51,8.44,-80.38,0.13,0.1,0.95
11:22:43:45:96765,2.36,8.51,-80.26,0.12,0.05,0.97
11:22:43:45:96859,2.23,8.45,-80.17,0.15,0.03,0.97
11:22:43:45:96972,2.08,8.39,-80.24,0.16,-0.03,0.97
11:22:43:46:97083,2.05,8.43,-80.12,0.14,-0.0,0.96
11:22:43:47:98468,-0.06,10.09,-81.12,0.13,0.03,1.0
11:22:43:47:98580,0.4,9.62,-81.16,0.15,0.08,0.97
11:22:43:47:98675,0.96,9.16,-81.2,0.1,0.12,1.01
11:22:43:47:98772,1.4,8.7,-81.27,0.13,0.06,1.0
11:22:43:47:98867,1.88,8.17,-81.27,0.05,0.03,1.0
11:22:43:47:98964,2.14,7.81,-81.37,0.04,0.12,0.94
11:22:43:48:99059,2.56,7.53,-81.47,0.12,0.14,0.99
11:22:43:49:100483,3.57,7.08,-83.18,0.15,0.03,0.97
11:22:43:49:100583,3.24,7.48,-83.19,0.17,0.0,0.93
11:22:43:49:100678,2.79,7.89,-83.22,0.19,-0.02,0.97
11:22:43:49:100774,2.17,8.23,-83.23,0.16,-0.01,1.01
11:22:43:49:100869,1.72,8.44,-83.19,0.18,0.01,0.95
11:22:43:49:100981,1.67,8.71,-83.08,0.2,0.01,0.97
11:22:43:50:101076,1.59,8.86,-82.95,0.15,0.0,0.98
11:22:43:51:102470,2.95,7.99,-81.63,0.09,0.0,0.96
11:22:43:51:102567,2.96,7.86,-81.79,0.15,0.01,0.92
11:22:43:51:102663,3.11,7.75,-81.88,0.14,0.06,0.97
11:22:43:51:102758,2.99,8.21,-81.93,0.18,0.04,0.96
11:22:43:51:102887,2.85,8.2,-81.93,0.17,-0.0,0.94
11:22:43:51:102983,3.07,7.99,-81.84,0.08,0.05,0.96
11:22:43:52:103078,3.08,7.6,-81.84,0.12,0.09,1.07
11:22:43:53:104458,3.0,6.99,-82.27,0.12,0.04,0.99
11:22:43:53:104571,3.07,7.12,-82.29,0.06,0.04,0.95
11:22:43:53:104666,3.35,7.39,-82.29,0.18,0.1,1.02
11:22:43:53:104763,3.46,7.51,-82.31,0.12,0.06,0.89
11:22:43:53:104875,3.39,7.28,-82.38,0.1,0.01,0.98
11:22:43:53:104969,3.34,6.92,-82.45,0.13,0.06,0.98
11:22:43:54:105081,3.48,6.79,-82.4,0.13,0.11,1.1
11:22:43:55:106470,5.49,4.67,-82.83,0.05,0.1,0.95
11:22:43:55:106564,5.62,4.54,-82.86,0.04,0.11,1.06
11:22:43:55:106676,5.79,4.58,-82.88,0.13,0.1,0.97
11:22:43:55:106788,5.79,4.77,-82.91,0.1,0.09,0.97
11:22:43:55:106869,5.37,4.9,-83.0,0.08,-0.02,0.98
11:22:43:55:106965,4.6,5.33,-83.13,0.13,0.05,0.99
11:22:43:56:107076,4.04,5.88,-83.22,0.13,0.02,0.98
11:22:43:57:108385,2.04,8.28,-83.96,0.12,0.15,0.94
11:22:43:57:108464,2.74,8.46,-83.88,0.17,0.09,0.94
11:22:43:57:108560,2.5,8.18,-83.96,0.15,-0.03,0.94
11:22:43:57:108670,2.32,7.93,-84.11,0.03,-0.02,1.02
11:22:43:57:108799,2.54,8.11,-84.16,0.1,0.11,0.98
11:22:43:57:108864,2.64,8.22,-84.2,0.23,0.1,0.93
11:22:43:57:108959,2.73,8.09,-84.27,0.1,0.05,1.02
11:22:43:58:109070,2.69,7.98,-84.34,0.12,0.08,1.02
11:22:43:59:110468,2.55,8.37,-84.43,0.14,0.02,0.97
11:22:43:59:110580,2.22,8.45,-84.42,0.15,-0.02,0.97
11:22:43:59:110660,1.97,8.5,-84.41,0.17,-0.01,0.95
11:22:43:59:110786,1.87,8.8,-84.34,0.16,0.04,1.0
11:22:43:59:110868,1.63,9.04,-84.37,0.23,-0.0,0.98
11:22:43:59:110963,1.4,9.25,-84.38,0.19,0.0,1.0
11:22:44:0:111062,1.0,9.42,-84.44,0.2,-0.02,0.97
11:22:44:1:112480,-2.23,11.33,-84.26,0.23,-0.06,0.99
11:22:44:1:112576,-2.33,11.2,-84.23,0.19,-0.05,0.96
11:22:44:1:112670,-2.41,11.16,-84.21,0.17,-0.04,1.02
11:22:44:1:112769,-2.41,11.2,-84.16,0.18,-0.06,1.03
11:22:44:1:112865,-2.42,11.1,-84.12,0.19,-0.07,0.99
11:22:44:1:112975,-2.46,10.92,-84.07,0.18,-0.04,0.98
11:22:44:2:113087,-2.43,10.8,-84.03,0.16,-0.04,0.96
11:22:44:3:114467,0.94,7.47,-82.91,0.1,0.07,1.01
11:22:44:3:114564,1.03,7.38,-82.89,0.07,0.07,0.98
11:22:44:3:114659,1.2,7.35,-82.76,0.1,0.0,0.95
11:22:44:3:114787,1.39,7.32,-82.66,0.13,0.03,0.97
11:22:44:3:114883,1.39,7.19,-82.55,0.09,0.05,0.95
11:22:44:3:114962,1.39,7.09,-82.42,0.1,0.05,0.98
11:22:44:4:115074,1.39,7.15,-82.34,0.18,0.01,0.97
11:22:44:5:116494,2.52,8.55,-81.81,0.13,0.05,0.97
11:22:44:5:116557,2.31,8.41,-81.77,0.15,0.01,0.95
11:22:44:5:116656,2.39,8.35,-81.71,0.11,0.01,0.94
11:22:44:5:116781,2.48,8.23,-81.65,0.14,0.01,1.01
11:22:44:5:116878,2.53,8.35,-81.61,0.16,0.0,0.99
11:22:44:5:116973,2.49,8.43,-81.57,0.19,0.03,1.03
11:22:44:6:117070,2.46,8.3,-81.55,0.15,0.08,0.99
11:22:44:7:118467,3.27,8.06,-81.28,0.1,0.09,1.03
11:22:44:7:118578,3.16,8.19,-81.3,0.15,0.09,1.12
11:22:44:7:118676,2.8,8.54,-81.36,0.15,-0.01,0.93
11:22:44:7:118756,2.74,8.63,-81.36,0.17,0.03,0.9
11:22:44:7:118884,3.08,8.26,-81.33,0.16,0.02,0.89
11:22:44:7:118980,3.44,7.88,-81.3,0.11,0.07,1.06
11:22:44:8:119076,3.41,7.8,-81.3,0.14,0.02,0.99
11:22:44:9:120484,1.59,8.4,-81.08,0.17,-0.02,0.93
11:22:44:9:120565,1.79,8.18,-81.19,0.15,0.02,0.96
11:22:44:9:120659,1.92,8.01,-81.29,0.14,0.06,0.95
11:22:44:9:120773,1.96,7.95,-81.38,0.15,0.04,1.01
11:22:44:9:120869,2.05,7.95,-81.44,0.12,0.06,0.96
11:22:44:9:120965,2.24,7.84,-81.49,0.16,0.09,0.97
11:22:44:10:121076,2.34,7.6,-81.49,0.11,0.06,0.99
11:22:44:11:122476,3.45,8.18,-81.96,0.11,0.03,1.06
11:22:44:11:122569,3.35,8.29,-81.93,0.03,0.06,1.05
11:22:44:11:122665,3.26,8.32,-81.88,0.17,0.05,0.99
11:22:44:11:122761,3.34,8.44,-81.81,0.19,0.1,1.0
11:22:44:11:122872,3.22,8.25,-81.8,0.16,0.03,1.0
11:22:44:11:122969,3.35,8.23,-81.76,0.2,0.0,0.91
11:22:44:12:123063,3.33,8.06,-81.77,0.08,-0.03,0.96
11:22:44:13:124476,4.02,6.61,-82.09,0.04,0.14,1.12
11:22:44:13:124570,4.21,6.74,-82.09,0.2,0.08,0.97
11:22:44:13:124666,3.98,6.83,-82.11,0.15,0.05,0.97
11:22:44:13:124761,4.02,6.91,-82.1,0.1,0.02,0.91
11:22:44:13:124874,3.99,6.79,-82.1,0.12,0.09,1.01
11:22:44:13:124971,3.9,6.65,-82.1,0.1,0.07,0.97
11:22:44:14:125066,4.05,6.81,-82.07,0.17,0.09,0.98
11:22:44:15:126384,4.48,6.25,-82.45,0.12,0.09,0.99
11:22:44:15:126479,4.67,6.23,-82.44,0.08,0.14,1.01
11:22:44:15:126575,4.85,6.18,-82.43,0.1,0.19,1.06
11:22:44:15:126671,5.03,6.23,-82.45,0.07,0.06,1.01
11:22:44:15:126783,5.03,6.21,-82.5,0.13,0.12,1.01
11:22:44:15:126863,4.96,6.2,-82.53,0.11,0.06,1.04
11:22:44:15:126960,5.05,6.19,-82.47,0.14,-0.01,0.91
11:22:44:15:127054,5.33,6.28,-82.43,0.07,0.06,0.91
11:22:44:17:128467,5.73,7.4,-81.95,0.1,-0.08,1.05
11:22:44:17:128563,6.07,8.09,-82.05,0.22,0.13,1.06
11:22:44:17:128659,10.82,14.17,-80.14,0.25,-0.17,0.43
11:22:44:17:128756,19.14,19.59,-79.47,0.5,0.32,0.82
11:22:44:17:128866,14.13,16.56,-85.9,0.58,-0.24,1.18
11:22:44:17:128964,11.67,14.24,-86.35,0.11,0.07,0.84
11:22:44:18:129074,16.7,16.79,-84.1,0.53,0.44,0.92
11:22:44:19:130458,14.37,14.77,-80.63,0.15,0.17,0.97
11:22:44:19:130571,14.27,14.67,-80.44,0.23,0.22,0.98
11:22:44:19:130681,14.43,14.71,-80.22,0.26,0.23,0.99
11:22:44:19:130777,14.59,14.93,-79.99,0.33,0.26,0.94
11:22:44:19:130873,14.57,15.11,-79.81,0.3,0.23,0.81
11:22:44:19:130968,14.66,15.07,-79.63,0.31,0.22,0.9
11:22:44:20:131065,14.87,15.11,-79.41,0.26,0.27,0.74
11:22:44:21:132472,13.65,15.45,-78.4,0.24,0.26,0.99
11:22:44:21:132584,13.37,15.23,-78.53,0.2,0.25,1.0
11:22:44:21:132664,12.95,15.32,-78.83,0.25,0.19,0.95
11:22:44:21:132778,12.58,15.42,-79.05,0.25,0.16,0.97
11:22:44:21:132871,12.73,15.33,-79.14,0.25,0.22,0.98
11:22:44:21:132967,12.77,15.21,-79.37,0.19,0.16,0.87
11:22:44:22:133064,12.54,15.14,-79.38,0.21,0.13,0.92
11:22:44:23:134474,8.49,12.26,-80.33,0.19,0.14,0.96
11:22:44:23:134572,8.39,12.22,-80.77,0.17,0.13,1.01
11:22:44:23:134666,8.32,12.33,-81.14,0.17,0.15,1.02
11:22:44:23:134795,8.26,12.32,-81.65,0.14,0.12,0.96
11:22:44:23:134859,8.38,12.4,-82.24,0.17,0.11,0.96
11:22:44:23:134969,8.26,12.31,-82.54,0.13,0.12,0.99
11:22:44:24:135066,8.27,12.12,-82.32,0.14,0.11,0.91
11:22:44:25:136469,7.37,13.07,-75.54,0.26,0.13,1.01
11:22:44:25:136565,7.18,13.26,-75.28,0.26,0.13,0.95
11:22:44:25:136677,6.93,13.45,-75.06,0.24,0.09,0.98
11:22:44:25:136788,6.78,13.61,-74.86,0.2,0.12,0.96
11:22:44:25:136884,6.61,13.87,-74.68,0.25,0.13,0.89
11:22:44:25:136980,6.44,13.89,-74.5,0.23,0.09,0.96
11:22:44:26:137076,6.62,14.12,-74.24,0.3,0.09,0.96
11:22:44:27:138473,4.83,15.1,-72.96,0.24,0.04,0.95
11:22:44:27:138570,4.71,14.86,-72.88,0.2,0.06,0.96
11:22:44:27:138681,4.54,14.74,-72.92,0.29,0.05,0.97
11:22:44:27:138760,4.31,14.81,-72.97,0.21,0.1,0.96
11:22:44:27:138872,4.09,14.87,-73.02,0.24,0.06,0.93
11:22:44:27:138985,4.06,15.01,-73.0,0.21,0.05,0.94
11:22:44:28:139081,4.06,15.12,-72.96,0.22,0.03,0.89
11:22:44:29:140380,5.17,14.05,-72.33,0.29,0.08,0.96
11:22:44:29:140476,5.17,13.93,-72.32,0.13,0.11,0.98
11:22:44:29:140572,5.34,13.83,-72.27,0.17,0.13,0.98
11:22:44:29:140668,5.4,13.82,-72.25,0.26,0.07,0.94
11:22:44:29:140765,5.36,13.59,-72.22,0.22,0.1,1.0
11:22:44:29:140875,5.36,13.58,-72.18,0.18,0.11,0.93
11:22:44:29:140972,5.31,13.5,-72.19,0.26,0.07,0.99
11:22:44:30:141085,5.38,13.44,-72.16,0.23,0.09,0.98
11:22:44:31:142367,6.72,11.62,-72.17,0.18,0.08,0.97
11:22:44:31:142509,6.74,11.57,-72.16,0.15,0.13,0.99
11:22:44:31:142589,6.84,11.58,-72.14,0.19,0.11,1.02
11:22:44:31:142685,6.87,11.46,-72.15,0.18,0.14,1.01
11:22:44:31:142782,6.98,11.47,-72.14,0.18,0.12,0.97
11:22:44:31:142878,7.16,11.41,-72.15,0.16,0.11,0.99
11:22:44:31:142989,7.33,11.46,-72.16,0.15,0.14,0.95
11:22:44:32:143086,7.4,11.39,-72.22,0.21,0.11,0.99
11:22:44:33:144366,8.83,11.09,-72.84,0.2,0.17,1.0
11:22:44:33:144465,9.05,11.38,-72.85,0.18,0.19,0.98
11:22:44:33:144575,9.31,11.92,-72.85,0.29,0.18,0.94
11:22:44:33:144668,9.64,12.27,-72.84,0.22,0.15,0.92
11:22:44:33:144781,10.17,12.7,-72.84,0.19,0.19,1.02
11:22:44:33:144878,10.4,12.99,-72.89,0.26,0.2,0.91
11:22:44:33:144989,10.6,13.18,-72.94,0.22,0.14,0.96
11:22:44:33:145054,10.96,13.41,-72.93,0.22,0.18,0.93
11:22:44:35:146376,13.06,15.43,-73.62,0.29,0.17,0.9
11:22:44:35:146472,13.28,15.54,-73.7,0.24,0.23,0.97
11:22:44:35:146583,13.35,15.42,-73.72,0.3,0.21,0.9
11:22:44:35:146712,13.16,15.47,-73.87,0.25,0.22,0.91
11:22:44:35:146775,12.97,15.59,-74.01,0.28,0.17,0.94
11:22:44:35:146887,12.72,15.8,-74.15,0.31,0.2,0.92
11:22:44:35:146968,12.58,15.83,-74.18,0.28,0.23,0.95
11:22:44:36:147079,12.36,16.03,-74.21,0.3,0.18,0.93
11:22:44:37:148383,12.03,16.94,-74.15,0.16,0.18,0.91
11:22:44:37:148464,11.85,17.08,-74.25,0.2,0.17,0.9
11:22:44:37:148591,11.83,17.16,-74.29,0.4,0.04,0.92
11:22:44:37:148686,11.83,17.35,-74.33,0.28,0.13,0.84
11:22:44:37:148767,11.56,17.64,-74.42,0.35,0.18,0.98
11:22:44:37:148880,11.52,18.02,-74.48,0.39,0.1,0.78
11:22:44:37:148990,11.54,18.21,-74.55,0.45,0.16,0.96
11:22:44:38:149085,11.4,18.28,-74.63,0.35,0.17,0.9
11:22:44:38:149363,11.16,18.94,-74.91,0.37,0.18,1.02
11:22:44:38:149491,11.02,19.15,-74.99,0.4,0.04,0.9
11:22:44:38:149586,10.82,19.27,-75.09,0.31,0.11,0.96
11:22:44:38:149666,10.62,19.36,-75.17,0.35,0.18,0.87
11:22:44:38:149780,10.64,19.29,-75.19,0.35,0.17,1.02
11:22:44:38:149890,10.55,19.52,-75.24,0.26,0.16,0.95
11:22:44:38:149986,10.58,19.69,-75.21,0.36,0.18,1.0
11:22:44:39:150082,10.49,19.62,-75.16,0.33,0.03,0.96
11:22:44:40:151395,11.04,18.65,-74.42,0.27,0.32,0.98
11:22:44:40:151476,11.08,18.71,-74.41,0.38,0.38,1.03
11:22:44:40:151574,11.2,18.46,-74.37,0.24,0.04,0.93
11:22:44:40:151684,11.09,18.42,-74.4,0.16,0.19,0.88
11:22:44:40:151780,10.96,18.17,-74.46,0.37,0.11,0.83
11:22:44:40:151875,11.03,18.16,-74.43,0.15,0.22,1.16
11:22:44:40:151987,11.02,18.13,-74.41,0.25,0.2,0.97
11:22:44:41:152082,10.85,18.16,-74.49,0.39,0.08,1.0
11:22:44:42:153369,11.97,17.37,-73.77,0.31,0.23,0.9
11:22:44:42:153479,12.41,17.22,-73.64,0.27,0.26,0.88
11:22:44:42:153576,12.69,17.19,-73.55,0.11,0.06,0.82
11:22:44:42:153674,13.08,17.41,-73.41,0.05,0.06,1.0
11:22:44:42:153783,13.48,17.26,-73.24,0.33,0.28,1.08
11:22:44:42:153879,13.16,17.14,-73.37,0.18,0.07,0.87
11:22:44:42:153975,13.06,17.56,-73.39,0.38,0.26,0.82
11:22:44:43:154073,13.36,17.36,-73.26,0.31,0.13,0.79
11:22:44:44:155387,13.26,16.31,-73.27,0.27,0.2,0.93
11:22:44:44:155468,13.44,16.16,-73.17,0.26,0.23,0.91
11:22:44:44:155564,13.64,16.27,-73.19,0.27,0.22,0.91
11:22:44:44:155676,13.72,16.27,-73.22,0.26,0.21,0.95
11:22:44:44:155773,13.8,16.26,-73.27,0.23,0.22,0.93
11:22:44:44:155870,13.68,16.18,-73.36,0.25,0.18,0.93
11:22:44:44:155981,13.58,16.17,-73.43,0.24,0.18,0.93
11:22:44:45:156077,13.82,16.3,-73.39,0.26,0.24,0.94
11:22:44:46:157377,13.6,16.01,-73.44,0.28,0.21,0.92
11:22:44:46:157458,13.71,16.16,-73.4,0.28,0.23,0.9
11:22:44:46:157585,13.72,16.1,-73.4,0.26,0.22,0.93
11:22:44:46:157665,13.76,16.11,-73.41,0.27,0.19,0.88
11:22:44:46:157761,13.84,16.06,-73.38,0.26,0.24,0.9
11:22:44:46:157857,13.91,15.91,-73.37,0.26,0.22,0.95
11:22:44:46:157986,14.03,15.9,-73.34,0.29,0.24,0.95
11:22:44:47:158065,13.85,16.05,-73.4,0.28,0.22,0.92
11:22:44:48:159365,13.71,15.81,-73.6,0.29,0.21,0.9
11:22:44:48:159459,13.7,16.04,-73.64,0.28,0.21,0.9
11:22:44:48:159557,13.74,15.97,-73.66,0.27,0.23,0.91
11:22:44:48:159684,13.79,15.91,-73.69,0.25,0.23,0.91
11:22:44:48:159780,13.78,15.88,-73.73,0.24,0.2,0.91
11:22:44:48:159877,13.73,15.9,-73.79,0.27,0.21,0.91
11:22:44:48:159972,13.86,15.92,-73.79,0.25,0.23,0.94
11:22:44:49:160084,13.85,15.93,-73.81,0.26,0.21,0.92
11:22:44:50:161359,13.8,15.75,-73.77,0.3,0.21,0.94
11:22:44:50:161470,13.55,15.92,-73.81,0.28,0.18,0.92
11:22:44:50:161581,13.42,16.08,-73.84,0.32,0.22,0.93
11:22:44:50:161677,13.39,16.19,-73.82,0.23,0.19,0.93
11:22:44:50:161774,13.19,16.1,-73.86,0.3,0.16,0.91
11:22:44:50:161870,13.15,16.02,-73.86,0.3,0.19,0.94
11:22:44:50:161997,13.23,16.19,-73.81,0.31,0.2,0.94
11:22:44:51:162078,12.98,15.99,-73.84,0.26,0.16,0.93
11:22:44:52:163372,11.94,16.72,-74.37,0.35,0.19,0.93
11:22:44:52:163470,12.11,16.66,-74.35,0.25,0.25,0.93
11:22:44:52:163563,12.42,16.57,-74.3,0.22,0.18,0.93
11:22:44:52:163676,12.55,16.45,-74.32,0.29,0.21,0.95
11:22:44:52:163771,12.75,16.49,-74.3,0.31,0.21,0.88
11:22:44:52:163869,12.89,16.61,-74.33,0.23,0.21,0.95
11:22:44:52:163979,13.18,16.57,-74.3,0.28,0.24,0.91
11:22:44:53:164076,13.44,16.55,-74.34,0.26,0.23,0.89
11:22:44:54:165375,13.99,16.85,-76.82,0.25,0.16,0.84
11:22:44:54:165470,13.91,16.85,-76.95,0.31,0.18,0.81
11:22:44:54:165567,14.05,16.73,-76.98,0.27,0.17,0.84
11:22:44:54:165679,14.38,16.04,-76.88,0.23,0.23,0.91
11:22:44:54:165790,14.81,15.53,-76.7,0.25,0.31,0.93
11:22:44:54:165885,14.87,15.27,-76.58,0.17,0.27,0.82
11:22:44:54:165998,15.07,14.97,-76.37,0.2,0.23,0.86
11:22:44:55:166077,15.51,14.45,-76.0,0.24,0.31,1.07
11:22:44:56:167369,19.04,11.45,-73.75,0.2,0.34,0.87
11:22:44:56:167464,19.42,11.25,-73.6,0.17,0.42,0.94
11:22:44:56:167591,19.52,10.96,-73.54,0.16,0.35,0.94
11:22:44:56:167671,19.77,10.77,-73.49,0.18,0.37,0.92
11:22:44:56:167769,20.04,10.72,-73.41,0.19,0.31,0.9
11:22:44:56:167864,20.23,10.62,-73.36,0.25,0.33,0.9
11:22:44:56:167961,20.25,10.63,-73.33,0.21,0.34,0.93
11:22:44:57:168086,20.32,10.71,-73.29,0.17,0.36,0.96
11:22:44:58:169397,18.82,12.21,-73.5,0.26,0.33,0.94
11:22:44:58:169477,18.88,12.27,-73.51,0.24,0.3,0.93
11:22:44:58:169588,18.57,12.33,-73.58,0.21,0.3,0.94
11:22:44:58:169668,18.46,12.4,-73.62,0.24,0.27,0.88
11:22:44:58:169779,18.38,12.42,-73.66,0.18,0.27,0.94
11:22:44:58:169876,18.17,12.41,-73.76,0.21,0.28,0.9
11:22:44:58:169973,17.97,12.51,-73.83,0.24,0.26,0.9
11:22:44:59:170069,17.79,12.72,-73.88,0.24,0.28,0.91
11:22:45:0:171376,15.59,14.25,-74.3,0.23,0.24,0.91
11:22:45:0:171458,15.54,14.24,-74.31,0.22,0.24,0.91
11:22:45:0:171585,15.49,14.25,-74.31,0.21,0.25,0.93
11:22:45:0:171682,15.56,14.35,-74.31,0.23,0.26,0.93
11:22:45:0:171777,15.57,14.42,-74.31,0.22,0.25,0.93
11:22:45:0:171874,15.52,14.35,-74.31,0.2,0.26,0.93
11:22:45:0:171969,15.48,14.34,-74.33,0.24,0.25,0.93
11:22:45:1:172081,15.52,14.4,-74.32,0.22,0.27,0.93
11:22:45:1:172368,15.54,14.55,-74.65,0.25,0.24,0.91
11:22:45:1:172463,15.53,14.59,-74.79,0.24,0.25,0.93
11:22:45:1:172561,15.54,14.59,-74.92,0.25,0.25,0.94
11:22:45:1:172673,15.5,14.61,-75.05,0.22,0.26,0.93
11:22:45:1:172769,15.42,14.7,-75.18,0.26,0.21,0.93
11:22:45:1:172881,15.18,14.94,-75.34,0.27,0.21,0.92
11:22:45:1:172960,14.83,15.14,-75.5,0.3,0.21,0.93
11:22:45:2:173071,14.45,15.45,-75.67,0.29,0.18,0.93
11:22:45:2:173379,13.4,16.28,-76.11,0.28,0.2,0.93
11:22:45:2:173477,13.22,16.46,-76.2,0.3,0.17,0.92
11:22:45:2:173558,13.03,16.6,-76.26,0.28,0.2,0.91
11:22:45:2:173669,12.9,16.66,-76.31,0.29,0.21,0.92
11:22:45:2:173763,12.88,16.62,-76.31,0.28,0.21,0.94
11:22:45:2:173875,12.89,16.62,-76.32,0.28,0.19,0.93
11:22:45:2:173971,12.88,16.63,-76.35,0.27,0.2,0.91
11:22:45:3:174068,12.9,16.63,-76.35,0.27,0.21,0.91
11:22:45:4:175379,13.64,16.02,-76.28,0.25,0.22,0.91
11:22:45:4:175461,13.27,16.32,-76.41,0.33,0.17,0.91
11:22:45:4:175571,12.75,16.72,-76.55,0.29,0.19,0.93
11:22:45:4:175669,12.67,16.78,-76.58,0.3,0.19,0.91
11:22:45:4:175764,12.62,16.84,-76.6,0.29,0.2,0.94
11:22:45:4:175860,12.34,17.06,-76.69,0.31,0.17,0.92
11:22:45:4:175956,12.24,17.1,-76.71,0.29,0.21,0.92
11:22:45:5:176068,12.22,17.15,-76.72,0.31,0.19,0.94
11:22:45:5:176358,12.01,17.3,-76.75,0.31,0.19,0.91
11:22:45:5:176486,11.94,17.34,-76.76,0.3,0.2,0.93
11:22:45:5:176565,11.9,17.35,-76.76,0.31,0.17,0.93
11:22:45:5:176678,11.9,17.37,-76.76,0.28,0.19,0.92
11:22:45:5:176775,11.86,17.41,-76.78,0.31,0.19,0.91
11:22:45:5:176887,11.83,17.42,-76.79,0.3,0.21,0.93
11:22:45:5:176968,11.83,17.45,-76.81,0.3,0.18,0.92
11:22:45:6:177062,11.84,17.48,-76.85,0.3,0.18,0.93
11:22:45:6:177366,11.83,17.65,-77.29,0.29,0.19,0.93
11:22:45:6:177463,11.84,17.71,-77.53,0.3,0.18,0.92
11:22:45:6:177605,11.83,17.77,-77.7,0.28,0.2,0.93
11:22:45:6:177670,11.83,17.78,-77.85,0.31,0.18,0.91
11:22:45:6:177782,11.81,17.78,-78.01,0.29,0.21,0.93
11:22:45:6:177878,11.81,17.79,-78.12,0.31,0.17,0.93
11:22:45:6:177974,11.8,17.76,-78.18,0.28,0.2,0.91
11:22:45:7:178071,11.79,17.73,-78.24,0.32,0.17,0.9
11:22:45:7:178357,11.77,17.62,-78.25,0.29,0.19,0.93
11:22:45:7:178469,11.75,17.6,-78.25,0.29,0.17,0.9
11:22:45:7:178581,11.76,17.56,-78.23,0.3,0.2,0.93
11:22:45:7:178661,11.76,17.55,-78.24,0.3,0.19,0.93
11:22:45:7:178789,11.75,17.53,-78.22,0.3,0.17,0.92
11:22:45:7:178869,11.73,17.5,-78.14,0.29,0.19,0.91
11:22:45:7:178965,11.73,17.47,-78.1,0.31,0.19,0.91
11:22:45:8:179061,11.72,17.48,-78.11,0.3,0.19,0.93
11:22:45:8:179362,11.76,17.52,-78.18,0.33,0.17,0.91
11:22:45:8:179458,11.78,17.52,-78.23,0.32,0.18,0.91
11:22:45:8:179570,11.78,17.56,-78.32,0.3,0.17,0.93
11:22:45:8:179681,11.8,17.58,-78.41,0.3,0.18,0.94
11:22:45:8:179778,11.78,17.63,-78.51,0.28,0.18,0.93
11:22:45:8:179874,11.79,17.59,-78.53,0.3,0.18,0.92
11:22:45:8:179970,11.78,17.59,-78.56,0.28,0.19,0.93
11:22:45:9:180065,11.78,17.58,-78.59,0.31,0.17,0.93
11:22:45:9:180383,11.75,17.51,-78.51,0.28,0.21,0.92
11:22:45:9:180463,11.67,17.54,-78.47,0.3,0.17,0.95
11:22:45:9:180590,11.43,17.76,-78.55,0.31,0.15,0.92
11:22:45:9:180671,11.07,18.05,-78.67,0.34,0.15,0.92
11:22:45:9:180767,10.68,18.33,-78.77,0.32,0.12,0.93
11:22:45:9:180863,10.26,18.66,-78.81,0.34,0.13,0.91
11:22:45:9:180976,9.71,19.03,-78.92,0.4,0.12,0.91
11:22:45:10:181071,9.2,19.41,-79.06,0.37,0.1,0.94
11:22:45:10:181386,8.04,20.23,-79.22,0.36,0.1,0.92
11:22:45:10:181465,7.75,20.44,-79.2,0.36,0.11,0.91
11:22:45:10:181577,7.52,20.56,-79.18,0.36,0.09,0.92
11:22:45:10:181673,7.33,20.62,-79.14,0.33,0.09,0.92
11:22:45:10:181769,7.14,20.74,-79.08,0.39,0.09,0.92
11:22:45:10:181864,6.99,20.85,-78.96,0.35,0.11,0.93
11:22:45:10:181960,6.83,20.91,-78.78,0.36,0.1,0.93
11:22:45:11:182056,6.6,20.92,-78.6,0.35,0.11,0.91
11:22:45:11:182381,6.26,21.11,-78.04,0.36,0.08,0.91
11:22:45:11:182493,5.94,21.2,-78.0,0.36,0.07,0.9
11:22:45:11:182573,5.56,21.4,-78.04,0.37,0.05,0.92
11:22:45:11:182671,5.27,21.83,-78.03,0.44,0.05,0.89
11:22:45:11:182765,4.88,22.32,-78.07,0.38,0.03,0.95
11:22:45:11:182893,4.06,22.51,-78.26,0.41,0.03,0.92
11:22:45:11:182973,3.34,22.94,-78.51,0.46,-0.03,0.91
11:22:45:12:183070,2.88,23.61,-78.62,0.44,0.03,0.88
11:22:45:13:184368,2.9,23.47,-76.85,0.43,0.1,0.91
11:22:45:13:184466,2.65,23.59,-76.79,0.39,0.05,0.96
11:22:45:13:184577,2.64,23.64,-76.71,0.42,0.08,0.9
11:22:45:13:184672,2.72,23.83,-76.57,0.41,0.05,0.91
11:22:45:13:184767,2.72,24.16,-76.49,0.4,0.06,0.89
11:22:45:13:184879,2.49,24.13,-76.48,0.43,0.03,0.91
11:22:45:13:184975,2.03,24.02,-76.61,0.38,0.04,0.96
11:22:45:14:185071,2.07,24.42,-76.52,0.42,0.07,0.97
11:22:45:15:186395,5.65,21.63,-73.89,0.32,0.12,0.95
11:22:45:15:186475,5.8,21.38,-73.83,0.33,0.15,0.92
11:22:45:15:186555,6.1,21.53,-73.68,0.38,0.11,0.9
11:22:45:15:186666,6.15,21.52,-73.62,0.44,0.07,0.9
11:22:45:15:186764,5.97,21.41,-73.69,0.39,0.05,0.91
11:22:45:15:186875,5.7,21.53,-73.8,0.35,0.09,0.94
11:22:45:15:186970,5.46,21.74,-73.97,0.37,0.11,0.92
11:22:45:16:187082,5.31,22.0,-74.22,0.44,0.04,0.91
11:22:45:16:187382,5.14,22.12,-74.86,0.36,0.05,0.86
11:22:45:16:187478,5.28,22.22,-75.0,0.34,0.07,0.89
11:22:45:16:187556,5.46,22.06,-75.1,0.4,0.03,0.9
11:22:45:16:187670,5.72,21.92,-75.16,0.35,0.08,0.88
11:22:45:16:187766,5.98,21.9,-75.17,0.35,0.09,0.89
11:22:45:16:187863,6.27,21.76,-75.2,0.37,0.1,0.94
11:22:45:16:187957,6.56,21.58,-75.2,0.29,0.15,0.94
11:22:45:17:188069,6.92,21.28,-75.19,0.33,0.15,0.91
11:22:45:18:189371,8.39,20.56,-75.86,0.36,0.14,0.91
11:22:45:18:189466,8.51,20.85,-76.01,0.34,0.09,0.91
11:22:45:18:189562,8.6,20.86,-76.21,0.42,0.13,0.88
11:22:45:18:189659,8.64,20.96,-76.26,0.3,0.18,0.91
11:22:45:18:189770,8.5,20.85,-76.5,0.35,0.12,0.95
11:22:45:18:189866,8.36,21.04,-76.75,0.44,0.14,1.0
11:22:45:18:189977,8.06,21.17,-77.03,0.32,0.14,0.97
11:22:45:19:190074,7.75,21.43,-77.27,0.37,0.16,1.0
11:22:45:20:191374,10.76,18.99,-76.54,0.33,0.26,0.89
11:22:45:20:191483,11.07,18.77,-76.49,0.26,0.22,0.9
11:22:45:20:191581,11.64,18.24,-76.36,0.27,0.26,0.95
11:22:45:20:191675,11.94,17.93,-76.33,0.23,0.22,0.92
11:22:45:20:191787,11.92,17.93,-76.4,0.3,0.18,0.94
11:22:45:20:191883,12.11,17.86,-76.41,0.33,0.18,0.86
11:22:45:20:191980,12.59,17.57,-76.36,0.28,0.22,0.93
11:22:45:21:192059,12.87,17.38,-76.36,0.25,0.18,0.89
11:22:45:22:193363,12.35,18.47,-77.88,0.31,0.13,0.96
11:22:45:22:193476,12.13,18.58,-77.96,0.33,0.16,0.86
11:22:45:22:193592,12.09,18.41,-78.08,0.29,0.25,1.06
11:22:45:22:193668,12.03,18.35,-78.18,0.24,0.27,1.02
11:22:45:22:193766,11.72,18.56,-78.34,0.35,0.13,0.84
11:22:45:22:193860,11.65,18.7,-78.4,0.29,0.08,0.77
11:22:45:22:193971,11.78,18.37,-78.48,0.31,0.29,1.07
11:22:45:23:194084,12.21,17.9,-78.46,0.37,0.22,0.79
11:22:45:24:195376,11.72,16.82,-75.75,0.31,0.19,0.9
11:22:45:24:195471,11.76,16.84,-75.64,0.27,0.2,0.93
11:22:45:24:195567,11.82,16.69,-75.66,0.28,0.19,0.93
11:22:45:24:195664,11.93,16.65,-75.78,0.29,0.19,0.93
11:22:45:24:195760,11.8,16.55,-75.98,0.28,0.23,0.93
11:22:45:24:195856,11.64,16.54,-76.13,0.25,0.13,0.9
11:22:45:24:195983,11.25,16.34,-76.3,0.25,0.18,0.95
11:22:45:25:196079,11.46,16.49,-76.25,0.33,0.18,0.89
11:22:45:26:197371,11.54,17.6,-74.19,0.34,0.19,0.84
11:22:45:26:197483,11.59,17.73,-73.98,0.39,0.12,0.87
11:22:45:26:197579,11.42,17.83,-73.78,0.32,0.14,0.94
11:22:45:26:197675,11.08,17.71,-73.69,0.38,0.17,0.96
11:22:45:26:197771,10.79,17.91,-73.54,0.34,0.13,0.88
11:22:45:26:197868,10.65,17.99,-73.43,0.31,0.14,0.88
11:22:45:26:197980,10.75,18.01,-73.27,0.33,0.22,0.98
11:22:45:27:198075,10.61,18.08,-73.16,0.34,0.11,0.89
11:22:45:28:199374,8.86,17.94,-74.19,0.29,0.17,0.96
11:22:45:28:199479,8.96,17.78,-74.38,0.28,0.14,0.88
11:22:45:28:199577,9.37,17.38,-74.5,0.28,0.17,0.88
11:22:45:28:199671,9.88,17.02,-74.56,0.23,0.21,0.92
11:22:45:28:199768,10.2,16.9,-74.64,0.33,0.22,0.95
11:22:45:28:199866,10.29,16.95,-74.78,0.31,0.25,1.04
11:22:45:28:199992,10.13,16.79,-74.92,0.34,0.18,0.85
11:22:45:29:200073,10.14,16.46,-74.98,0.25,0.13,0.95
11:22:45:30:201363,12.02,16.23,-74.02,0.26,0.12,1.06
11:22:45:30:201460,11.56,16.67,-74.27,0.31,0.09,0.89
11:22:45:30:201555,11.3,17.04,-74.43,0.34,0.14,0.96
11:22:45:30:201666,11.21,17.36,-74.54,0.3,0.16,0.89
11:22:45:30:201779,10.95,17.78,-74.66,0.26,0.11,1.05
11:22:45:30:201874,10.71,18.24,-74.75,0.29,0.2,0.95
11:22:45:30:201986,10.44,18.42,-74.83,0.28,0.16,0.89
11:22:45:31:202066,10.33,18.58,-74.86,0.36,0.16,0.97
11:22:45:32:203359,10.05,18.33,-74.57,0.3,0.15,0.84
11:22:45:32:203469,10.2,17.93,-74.47,0.24,0.16,0.93
11:22:45:32:203579,10.07,17.67,-74.5,0.3,0.2,0.94
11:22:45:32:203660,10.29,17.54,-74.41,0.3,0.25,0.9
11:22:45:32:203757,10.37,17.45,-74.39,0.29,0.19,0.92
11:22:45:32:203867,10.66,17.42,-74.29,0.28,0.21,0.95
11:22:45:32:203981,10.6,17.37,-74.32,0.3,0.13,0.94
11:22:45:33:204077,10.67,17.42,-74.3,0.27,0.18,0.98
11:22:45:34:205361,10.02,18.0,-74.64,0.33,0.18,0.96
11:22:45:34:205458,9.95,18.11,-74.69,0.26,0.12,0.94
11:22:45:34:205570,9.91,18.07,-74.72,0.34,0.14,0.95
11:22:45:34:205681,9.88,18.09,-74.73,0.29,0.17,0.93
11:22:45:34:205779,9.86,18.15,-74.67,0.33,0.17,0.99
11:22:45:34:205874,9.95,18.2,-74.62,0.29,0.15,0.9
11:22:45:34:205984,9.98,18.23,-74.61,0.26,0.16,0.86
11:22:45:35:206064,9.96,18.38,-74.6,0.34,0.2,0.85
11:22:45:36:207404,10.38,17.79,-74.69,0.3,0.19,0.95
11:22:45:36:207465,10.51,17.64,-74.63,0.3,0.18,0.94
11:22:45:36:207561,10.53,17.58,-74.58,0.33,0.14,0.9
11:22:45:36:207657,10.5,17.52,-74.58,0.27,0.19,1.0
11:22:45:36:207786,10.54,17.54,-74.59,0.3,0.17,0.96
11:22:45:36:207882,10.5,17.51,-74.64,0.35,0.14,0.92
11:22:45:36:207977,10.48,17.62,-74.67,0.28,0.25,1.02
11:22:45:37:208074,10.41,17.6,-74.7,0.31,0.14,0.96
11:22:45:38:209376,11.6,17.51,-75.27,0.26,0.2,0.87
11:22:45:38:209483,11.38,17.73,-75.46,0.32,0.17,0.92
11:22:45:38:209579,11.26,17.89,-75.62,0.32,0.12,0.86
11:22:45:38:209676,11.5,17.76,-75.66,0.3,0.17,0.87
11:22:45:38:209787,11.69,17.58,-75.72,0.35,0.22,0.94
11:22:45:38:209868,11.6,17.61,-75.86,0.35,0.22,0.99
11:22:45:38:209964,11.26,17.83,-76.08,0.32,0.15,0.9
11:22:45:39:210076,10.87,17.88,-76.32,0.28,0.09,0.86
11:22:45:40:211391,10.81,18.17,-75.81,0.32,0.19,0.87
11:22:45:40:211471,11.2,17.83,-75.63,0.3,0.2,0.94
11:22:45:40:211574,11.26,17.55,-75.59,0.32,0.2,0.93
11:22:45:40:211664,11.46,17.66,-75.5,0.33,0.19,0.9
11:22:45:40:211777,11.78,17.69,-75.38,0.35,0.2,0.87
11:22:45:40:211856,11.92,17.61,-75.29,0.28,0.23,0.94
11:22:45:40:211968,12.14,17.56,-75.19,0.27,0.19,0.87
11:22:45:41:212063,12.26,17.4,-75.13,0.27,0.16,0.91
11:22:45:42:213367,14.58,16.46,-74.22,0.22,0.19,0.94
11:22:45:42:213463,14.46,16.4,-74.25,0.29,0.25,0.89
11:22:45:42:213575,14.36,16.22,-74.23,0.28,0.19,0.91
11:22:45:42:213685,14.42,16.27,-74.16,0.26,0.22,0.96
11:22:45:42:213783,14.39,16.4,-74.11,0.3,0.26,0.96
11:22:45:42:213878,14.17,16.5,-74.16,0.35,0.22,0.89
11:22:45:42:213975,14.18,16.42,-74.14,0.22,0.2,0.95
11:22:45:43:214070,14.25,16.28,-74.15,0.22,0.24,0.95
11:22:45:44:215371,11.77,18.04,-74.66,0.35,0.22,0.94
11:22:45:44:215467,11.81,18.09,-74.64,0.3,0.19,0.88
11:22:45:44:215563,11.8,17.96,-74.68,0.36,0.21,0.91
11:22:45:44:215691,11.89,17.89,-74.75,0.31,0.16,0.93
11:22:45:44:215772,12.12,17.89,-74.81,0.26,0.2,0.91
11:22:45:44:215868,12.38,17.73,-74.88,0.23,0.14,0.98
11:22:45:44:215965,12.54,17.6,-74.98,0.31,0.25,0.89
11:22:45:45:216091,12.63,17.28,-75.03,0.23,0.27,0.9
11:22:45:46:217377,14.01,16.26,-75.55,0.26,0.19,0.88
11:22:45:46:217472,13.82,16.01,-75.48,0.27,0.28,0.88
11:22:45:46:217569,13.98,16.08,-75.32,0.29,0.25,0.93
11:22:45:46:217665,14.0,15.97,-75.2,0.24,0.24,0.92
11:22:45:46:217760,13.87,15.89,-75.14,0.21,0.24,0.94
11:22:45:46:217858,13.89,15.84,-75.07,0.28,0.22,0.88
11:22:45:46:217985,14.09,15.95,-74.98,0.3,0.24,0.88
11:22:45:47:218081,14.2,15.89,-74.98,0.31,0.27,0.91
11:22:45:48:219394,13.15,16.29,-76.33,0.27,0.3,1.0
11:22:45:48:219467,12.86,16.21,-76.54,0.3,0.21,1.11
11:22:45:48:219563,12.13,16.35,-76.93,0.31,0.09,1.0
11:22:45:48:219689,11.58,16.88,-77.37,0.29,0.18,0.89
11:22:45:48:219770,11.91,16.9,-77.57,0.28,0.19,0.88
11:22:45:48:219865,12.23,16.85,-77.65,0.29,0.21,0.93
11:22:45:48:219979,12.39,16.87,-77.65,0.25,0.2,0.96
11:22:45:49:220074,12.41,16.96,-77.64,0.27,0.2,1.01
11:22:45:50:221374,13.69,16.7,-77.25,0.26,0.25,0.96
11:22:45:50:221469,13.77,16.43,-77.24,0.21,0.21,0.93
11:22:45:50:221580,13.6,16.24,-77.3,0.31,0.22,0.93
11:22:45:50:221677,13.36,16.05,-77.37,0.23,0.26,1.0
11:22:45:50:221773,13.38,15.88,-77.41,0.26,0.23,0.95
11:22:45:50:221870,13.35,15.77,-77.48,0.26,0.22,0.94
11:22:45:50:221981,13.16,15.5,-77.6,0.28,0.2,0.92
11:22:45:51:222061,13.02,15.28,-77.68,0.25,0.18,0.86
11:22:45:52:223367,12.99,14.94,-78.54,0.23,0.22,0.91
11:22:45:52:223463,13.21,15.04,-78.45,0.23,0.17,1.0
11:22:45:52:223575,13.07,15.17,-78.45,0.3,0.26,1.0
11:22:45:52:223686,12.69,15.14,-78.44,0.3,0.16,0.92
11:22:45:52:223783,12.55,15.24,-78.34,0.26,0.14,0.94
11:22:45:52:223878,12.77,15.01,-78.18,0.27,0.29,0.83
11:22:45:52:223976,13.05,14.73,-78.05,0.24,0.2,0.95
11:22:45:53:224072,13.21,14.8,-77.94,0.25,0.21,0.98
11:22:45:54:225390,12.98,15.79,-77.56,0.22,0.2,0.87
11:22:45:54:225486,13.29,15.65,-77.67,0.3,0.24,0.95
11:22:45:54:225582,13.32,15.25,-77.88,0.25,0.2,0.9
11:22:45:54:225679,13.35,15.07,-78.08,0.25,0.23,0.97
11:22:45:54:225792,13.43,15.26,-78.26,0.28,0.26,0.94
11:22:45:54:225886,13.48,15.59,-78.46,0.28,0.24,0.93
11:22:45:54:225983,13.46,15.86,-78.69,0.23,0.19,0.88
11:22:45:55:226062,13.63,16.04,-78.86,0.29,0.23,0.94
11:22:45:56:227379,13.42,16.74,-80.69,0.33,0.18,0.91
11:22:45:56:227461,13.13,16.99,-80.62,0.31,0.2,0.96
11:22:45:56:227587,12.85,17.15,-80.68,0.38,0.19,0.89
11:22:45:56:227683,12.42,17.31,-80.74,0.35,0.17,0.86
11:22:45:56:227778,12.12,17.59,-80.81,0.34,0.19,0.86
11:22:45:56:227859,11.81,17.64,-80.9,0.43,0.18,0.75
11:22:45:56:227969,11.82,17.62,-80.91,0.32,0.22,0.96
11:22:45:57:228066,11.57,17.64,-81.0,0.41,0.18,0.91
11:22:45:58:229370,10.0,17.86,-79.47,0.22,0.12,0.9
11:22:45:58:229483,10.19,17.67,-79.31,0.32,0.18,0.87
11:22:45:58:229580,10.67,18.03,-79.03,0.24,0.2,0.85
11:22:45:58:229675,10.83,18.37,-78.85,0.38,0.23,0.91
11:22:45:58:229787,11.14,18.66,-78.59,0.47,0.23,0.91
11:22:45:58:229883,10.98,18.42,-78.39,0.41,0.13,0.92
11:22:45:58:229994,10.7,18.13,-78.23,0.38,0.11,0.83
11:22:45:59:230059,10.36,17.78,-78.12,0.42,0.08,0.99
11:22:46:0:231363,8.34,19.49,-77.17,0.26,0.08,0.96
11:22:46:0:231471,8.32,19.6,-77.15,0.32,0.15,0.88
11:22:46:0:231582,8.34,19.58,-77.07,0.38,0.11,0.98
11:22:46:0:231663,8.41,19.86,-77.03,0.3,0.12,0.87
11:22:46:0:231759,8.52,19.96,-76.96,0.34,0.1,0.84
11:22:46:0:231886,8.74,19.78,-76.86,0.36,0.12,0.89
11:22:46:0:231981,8.94,19.49,-76.76,0.29,0.14,0.87
11:22:46:1:232080,9.09,19.15,-76.69,0.36,0.12,0.98
11:22:46:2:233397,12.15,18.32,-75.43,0.31,0.21,0.87
11:22:46:2:233478,12.21,18.26,-75.42,0.36,0.19,0.92
11:22:46:2:233574,12.34,18.22,-75.38,0.3,0.2,0.95
11:22:46:2:233669,12.45,18.02,-75.36,0.27,0.2,0.97
11:22:46:2:233814,12.49,18.06,-75.49,0.22,0.25,0.91
11:22:46:2:233878,12.49,17.87,-75.67,0.29,0.17,0.86
11:22:46:2:233974,12.83,17.82,-75.78,0.29,0.22,0.9
11:22:46:3:234084,13.08,17.58,-75.9,0.3,0.23,0.92
11:22:46:4:235374,13.79,16.36,-76.67,0.26,0.22,0.94
11:22:46:4:235487,13.68,16.24,-76.61,0.24,0.21,0.98
11:22:46:4:235581,13.56,16.18,-76.61,0.27,0.26,0.97
11:22:46:4:235694,13.79,16.34,-76.63,0.27,0.19,0.87
11:22:46:4:235759,13.78,16.26,-76.72,0.3,0.19,0.89
11:22:46:4:235887,13.83,16.18,-76.8,0.3,0.15,0.91
11:22:46:4:235983,13.8,16.17,-76.87,0.3,0.22,0.94
11:22:46:5:236094,13.77,16.24,-76.91,0.27,0.26,0.94
11:22:46:5:236388,13.61,16.09,-77.05,0.28,0.28,0.87
11:22:46:5:236483,13.5,15.92,-76.97,0.31,0.2,0.92
11:22:46:5:236581,13.54,15.88,-76.87,0.23,0.24,0.9
11:22:46:5:236674,13.49,15.97,-76.82,0.31,0.18,0.93
11:22:46:5:236787,13.24,16.1,-76.9,0.27,0.2,0.91
11:22:46:5:236883,12.84,16.25,-77.03,0.32,0.2,0.87
11:22:46:5:236978,12.47,16.35,-77.16,0.35,0.19,0.96
11:22:46:6:237075,12.28,16.45,-77.22,0.31,0.17,0.88
11:22:46:7:238360,7.67,19.9,-79.14,0.29,0.06,0.98
11:22:46:7:238504,7.47,19.9,-79.1,0.32,0.09,0.96
11:22:46:7:238583,7.37,19.92,-79.03,0.38,0.09,1.01
11:22:46:7:238680,7.2,19.92,-79.03,0.37,0.06,0.89
11:22:46:7:238791,7.27,20.05,-78.92,0.4,0.15,0.89
11:22:46:7:238886,7.3,20.27,-78.85,0.48,0.13,0.87
11:22:46:7:238985,7.19,20.57,-78.82,0.38,0.05,0.87
11:22:46:8:239079,7.14,20.69,-78.74,0.31,0.16,0.91
11:22:46:8:239380,7.3,19.99,-78.45,0.3,0.14,1.02
11:22:46:8:239494,7.43,19.84,-78.25,0.42,0.1,0.94
11:22:46:8:239572,7.47,19.95,-78.09,0.41,0.08,0.91
11:22:46:8:239685,7.57,19.89,-77.89,0.32,0.07,0.89
11:22:46:8:239781,7.74,19.91,-77.62,0.37,0.14,0.95
11:22:46:8:239909,7.64,19.54,-77.39,0.27,0.12,0.99
11:22:46:8:239973,7.5,18.92,-77.16,0.23,0.14,0.89
11:22:46:9:240085,7.58,18.67,-76.81,0.25,0.19,0.94
11:22:46:10:241403,9.31,15.51,-74.68,0.26,0.2,0.96
11:22:46:10:241484,9.33,15.56,-74.62,0.24,0.15,0.93
11:22:46:10:241580,9.31,15.57,-74.55,0.24,0.16,0.91
11:22:46:10:241677,9.64,15.48,-74.4,0.28,0.19,0.9
11:22:46:10:241772,10.07,15.2,-74.25,0.29,0.17,0.85
11:22:46:10:241883,10.52,15.08,-74.17,0.31,0.23,0.9
11:22:46:10:241981,10.71,15.3,-74.28,0.26,0.24,1.04
11:22:46:11:242075,10.52,15.45,-74.51,0.24,0.14,0.92
11:22:46:12:243400,6.71,17.36,-76.85,0.38,0.05,0.89
11:22:46:12:243496,6.59,17.22,-76.69,0.31,0.05,0.85
11:22:46:12:243575,6.41,16.95,-76.58,0.31,0.11,0.96
11:22:46:12:243686,6.21,16.88,-76.53,0.27,0.06,0.9
11:22:46:12:243782,5.89,16.81,-76.5,0.19,-0.0,0.93
11:22:46:12:243879,5.98,16.56,-76.38,0.26,0.14,0.89
11:22:46:12:243991,6.13,16.32,-76.3,0.26,0.14,0.98
11:22:46:13:244087,6.22,16.26,-76.23,0.26,0.09,0.97
11:22:46:14:245368,10.96,14.5,-76.7,0.16,0.19,0.91
11:22:46:14:245495,11.26,14.34,-76.81,0.24,0.2,0.85
11:22:46:14:245577,11.61,14.18,-76.93,0.27,0.2,0.96
11:22:46:14:245671,11.93,14.24,-77.14,0.24,0.23,0.99
11:22:46:14:245767,12.23,14.58,-77.44,0.24,0.17,0.86
11:22:46:14:245865,12.53,14.72,-77.78,0.31,0.17,0.87
11:22:46:14:245976,12.99,14.9,-78.08,0.26,0.24,0.92
11:22:46:15:246071,13.53,15.17,-78.33,0.26,0.24,0.9
11:22:46:16:247374,15.71,16.94,-82.04,0.28,0.28,0.86
11:22:46:16:247485,15.92,16.95,-82.11,0.26,0.3,0.85
11:22:46:16:247582,16.17,16.98,-82.24,0.33,0.22,0.86
11:22:46:16:247679,16.62,16.9,-82.27,0.23,0.3,0.83
11:22:46:16:247774,16.93,16.68,-82.43,0.27,0.26,0.9
11:22:46:16:247871,17.33,16.68,-82.6,0.26,0.26,0.9
11:22:46:16:248013,17.56,16.68,-82.82,0.3,0.27,0.89
11:22:46:17:248078,17.52,16.49,-83.09,0.22,0.32,0.95
11:22:46:18:249361,13.62,20.01,-85.91,0.34,0.17,0.91
11:22:46:18:249471,13.28,19.92,-85.86,0.38,0.12,0.9
11:22:46:18:249584,13.18,19.96,-85.84,0.35,0.2,0.89
11:22:46:18:249663,12.91,19.97,-85.87,0.41,0.17,0.91
11:22:46:18:249759,12.46,19.84,-85.98,0.33,0.18,0.87
11:22:46:18:249873,12.33,19.72,-85.86,0.35,0.14,0.82
11:22:46:18:249984,12.62,19.55,-85.64,0.39,0.21,0.85
11:22:46:19:250064,12.95,19.31,-85.41,0.3,0.24,0.97
11:22:46:20:251365,12.53,18.97,-85.26,0.41,0.22,0.87
11:22:46:20:251461,12.33,19.44,-85.21,0.42,0.23,0.84
11:22:46:20:251571,12.59,19.48,-85.18,0.41,0.25,0.85
11:22:46:20:251667,13.07,19.65,-85.09,0.4,0.21,0.88
11:22:46:20:251765,13.39,19.79,-84.97,0.34,0.25,0.88
11:22:46:20:251876,13.78,19.83,-84.88,0.37,0.3,0.83
11:22:46:20:251989,14.28,19.77,-84.75,0.34,0.25,0.87
11:22:46:21:252083,14.56,19.66,-84.76,0.37,0.19,0.86
11:22:46:22:253376,14.38,18.63,-85.21,0.37,0.2,0.84
11:22:46:22:253470,14.49,18.77,-85.14,0.35,0.25,0.83
11:22:46:22:253582,15.01,18.71,-84.89,0.4,0.28,0.87
11:22:46:22:253678,15.15,18.75,-84.68,0.41,0.26,0.87
11:22:46:22:253774,15.15,19.09,-84.66,0.4,0.26,0.88
11:22:46:22:253870,15.25,19.43,-84.64,0.41,0.22,0.89
11:22:46:22:253982,15.28,19.35,-84.53,0.36,0.18,0.82
11:22:46:23:254078,15.41,19.2,-84.33,0.33,0.25,1.09
11:22:46:24:255362,14.66,19.54,-83.96,0.4,0.27,0.91
11:22:46:24:255486,14.39,19.97,-83.98,0.42,0.2,0.88
11:22:46:24:255582,14.07,20.26,-83.94,0.36,0.21,0.88
11:22:46:24:255678,13.9,20.51,-83.85,0.39,0.22,0.96
11:22:46:24:255774,13.79,20.23,-83.87,0.37,0.32,1.0
11:22:46:24:255870,13.32,20.21,-84.12,0.41,0.26,0.96
11:22:46:24:255966,12.63,20.83,-84.42,0.43,0.13,0.86
11:22:46:25:256077,12.09,21.41,-84.66,0.45,0.17,0.83
11:22:46:26:257373,14.24,21.09,-85.85,0.48,0.37,0.99
11:22:46:26:257471,13.71,21.65,-86.2,0.4,0.14,0.84
11:22:46:26:257566,13.72,22.04,-86.51,0.42,0.29,0.9
11:22:46:26:257664,14.49,21.8,-86.54,0.32,0.31,0.9
11:22:46:26:257759,15.04,21.76,-86.53,0.38,0.33,0.96
11:22:46:26:257887,15.3,21.78,-86.47,0.39,0.24,0.86
11:22:46:26:257982,15.73,21.74,-86.28,0.43,0.3,0.82
11:22:46:27:258079,15.87,21.7,-86.19,0.39,0.29,0.87
11:22:46:27:258271,15.92,21.67,-86.17,0.38,0.22,0.83
11:22:46:27:258366,15.73,21.82,-86.42,0.41,0.23,0.85
11:22:46:27:258495,15.81,21.98,-86.56,0.41,0.26,0.93
11:22:46:27:258574,15.63,21.8,-86.7,0.38,0.32,0.99
11:22:46:27:258671,15.02,21.83,-86.91,0.4,0.22,0.92
11:22:46:27:258766,14.15,22.16,-87.19,0.4,0.14,0.87
11:22:46:27:258883,13.92,22.24,-87.25,0.43,0.16,0.84
11:22:46:27:258974,14.1,22.01,-87.24,0.41,0.29,0.92
11:22:46:28:259358,13.69,21.9,-87.12,0.4,0.19,0.8
11:22:46:28:259485,13.92,21.91,-86.84,0.4,0.28,0.87
11:22:46:28:259567,14.29,22.08,-86.59,0.38,0.24,0.83
11:22:46:28:259676,14.42,22.11,-86.39,0.47,0.32,1.01
11:22:46:28:259773,14.11,21.86,-86.46,0.4,0.31,0.98
11:22:46:28:259869,13.49,21.97,-86.67,0.49,0.28,0.94
11:22:46:28:259964,12.91,22.26,-86.84,0.43,0.18,0.85
11:22:46:29:260062,13.09,22.65,-86.79,0.47,0.3,0.87
11:22:46:29:260381,14.88,23.18,-86.06,0.5,0.27,0.82
11:22:46:29:260478,15.11,23.25,-86.22,0.42,0.24,0.81
11:22:46:29:260575,15.59,23.5,-86.45,0.42,0.27,0.82
11:22:46:29:260669,15.8,23.65,-86.73,0.42,0.3,0.92
11:22:46:29:260766,16.15,23.88,-86.89,0.43,0.29,0.84
11:22:46:29:260877,16.1,23.59,-87.07,0.42,0.26,0.93
11:22:46:29:260974,15.88,23.42,-87.14,0.44,0.24,0.89
11:22:46:30:261070,15.6,23.24,-87.15,0.53,0.28,0.95
11:22:46:30:261374,15.12,23.06,-87.21,0.46,0.3,0.89
11:22:46:30:261470,14.96,22.96,-87.51,0.43,0.26,0.93
11:22:46:30:261565,14.78,23.36,-87.84,0.44,0.26,0.85
11:22:46:30:261662,14.65,23.58,-88.01,0.46,0.23,0.88
11:22:46:30:261789,14.72,23.42,-87.99,0.46,0.26,0.92
11:22:46:30:261869,14.41,23.17,-87.87,0.29,0.34,0.95
11:22:46:30:261966,14.03,23.2,-87.65,0.47,0.21,0.88
11:22:46:31:262078,13.85,22.61,-87.29,0.44,0.31,0.91
11:22:46:31:262365,12.66,22.2,-86.74,0.47,0.12,0.85
11:22:46:31:262462,12.82,22.11,-86.8,0.43,0.18,0.88
11:22:46:31:262572,12.87,22.03,-87.08,0.42,0.2,0.92
11:22:46:31:262652,12.6,22.13,-87.32,0.39,0.19,0.9
11:22:46:31:262765,12.34,22.45,-87.37,0.43,0.2,0.89
11:22:46:31:262862,12.16,22.37,-87.32,0.36,0.27,1.07
11:22:46:31:262957,11.94,22.51,-87.31,0.52,0.15,0.96
11:22:46:32:263069,11.54,22.67,-87.57,0.4,0.21,0.95
11:22:46:32:263385,11.31,23.13,-88.05,0.44,0.16,0.86
11:22:46:32:263464,11.18,23.12,-88.22,0.45,0.25,0.84
11:22:46:32:263593,11.42,23.16,-88.35,0.38,0.21,0.9
11:22:46:32:263671,11.51,22.99,-88.44,0.38,0.23,0.98
11:22:46:32:263783,11.36,22.93,-88.79,0.37,0.17,0.91
11:22:46:32:263865,11.2,23.04,-89.28,0.44,0.24,0.95
11:22:46:32:263977,11.24,23.13,-89.39,0.41,0.17,0.88
11:22:46:33:264073,11.26,23.07,-89.22,0.37,0.19,0.83
11:22:46:33:264369,11.83,22.25,-88.92,0.29,0.17,0.78
11:22:46:33:264480,11.89,22.11,-89.0,0.34,0.17,0.92
11:22:46:33:264559,12.18,22.18,-89.01,0.34,0.34,0.88
11:22:46:33:264671,12.24,22.06,-89.13,0.38,0.16,0.94
11:22:46:33:264769,12.09,22.26,-89.28,0.37,0.11,0.84
11:22:46:33:264863,12.22,22.37,-89.36,0.38,0.25,0.88
11:22:46:33:265008,12.43,22.34,-89.42,0.47,0.22,0.87
11:22:46:34:265057,12.64,21.97,-89.41,0.37,0.17,0.92
11:22:46:34:265371,11.58,21.8,-89.67,0.37,0.22,0.93
11:22:46:34:265467,11.5,21.8,-89.65,0.33,0.17,0.87
11:22:46:34:265579,11.46,21.61,-89.81,0.4,0.19,0.95
11:22:46:34:265660,11.58,21.62,-89.82,0.33,0.19,0.98
11:22:46:34:265756,11.5,21.74,-89.9,0.42,0.14,0.92
11:22:46:34:265884,11.56,21.76,-89.93,0.37,0.2,0.93
11:22:46:34:265981,11.88,21.97,-89.9,0.34,0.12,0.85
11:22:46:35:266077,12.07,22.04,-89.93,0.39,0.25,0.96
11:22:46:35:266366,11.89,21.93,-90.16,0.43,0.15,0.8
11:22:46:35:266477,11.68,21.7,-90.22,0.38,0.15,0.88
11:22:46:35:266574,11.4,21.58,-90.33,0.32,0.23,1.0
11:22:46:35:266670,11.17,21.32,-90.35,0.3,0.22,0.91
11:22:46:35:266766,10.95,21.14,-90.35,0.41,0.14,1.01
11:22:46:35:266861,10.54,21.01,-90.47,0.39,0.14,0.93
11:22:46:35:266956,10.11,20.96,-90.56,0.31,0.14,0.9
11:22:46:36:267084,10.21,20.88,-90.51,0.27,0.12,0.91
11:22:46:37:268383,9.99,18.21,-89.62,0.34,0.12,0.97
11:22:46:37:268455,9.56,18.28,-89.58,0.3,0.09,0.91
11:22:46:37:268567,9.44,18.37,-89.5,0.3,0.19,0.87
11:22:46:37:268664,9.47,18.38,-89.37,0.36,0.12,0.89
11:22:46:37:268759,9.4,18.25,-89.27,0.31,0.13,0.97
11:22:46:37:268855,9.26,18.43,-89.2,0.28,0.17,0.98
11:22:46:37:268982,9.15,18.74,-89.16,0.37,0.2,0.96
11:22:46:38:269079,8.95,18.92,-89.15,0.4,0.12,0.88
11:22:46:39:270373,11.14,18.19,-87.95,0.32,0.18,0.91
11:22:46:39:270469,11.53,18.03,-87.81,0.23,0.18,0.89
11:22:46:39:270564,11.91,17.86,-87.69,0.24,0.12,0.83
11:22:46:39:270676,12.14,17.56,-87.62,0.27,0.19,0.94
11:22:46:39:270756,12.53,17.42,-87.53,0.24,0.25,0.92
11:22:46:39:270868,12.72,17.17,-87.52,0.28,0.23,0.99
11:22:46:39:270979,12.96,17.19,-87.44,0.23,0.2,0.94
11:22:46:40:271075,13.09,17.17,-87.36,0.3,0.29,0.93
11:22:46:41:272372,13.79,15.03,-86.28,0.24,0.19,0.91
11:22:46:41:272468,13.88,15.03,-86.23,0.23,0.24,0.95
11:22:46:41:272580,13.81,15.0,-86.22,0.11,0.08,0.92
11:22:46:41:272678,13.92,14.97,-86.15,0.24,0.24,0.86
11:22:46:41:272772,14.12,14.96,-86.1,0.28,0.23,0.98
11:22:46:41:272869,14.09,15.11,-85.96,0.28,0.22,0.9
11:22:46:41:272979,13.77,15.32,-85.96,0.27,0.17,0.9
11:22:46:42:273060,13.76,15.32,-85.87,0.22,0.18,0.85
11:22:46:43:274377,14.44,12.77,-82.94,0.2,0.26,0.94
11:22:46:43:274470,14.53,12.53,-82.76,0.23,0.27,0.9
11:22:46:43:274567,14.76,12.58,-82.54,0.27,0.25,0.83
11:22:46:43:274677,14.92,12.14,-82.32,0.16,0.27,0.9
11:22:46:43:274772,15.13,11.44,-82.15,0.15,0.26,0.95
11:22:46:43:274884,14.91,10.87,-81.99,0.15,0.27,1.03
11:22:46:43:274981,14.37,10.82,-81.93,0.18,0.15,0.91
11:22:46:44:275078,14.06,10.85,-81.83,0.17,0.17,0.92
11:22:46:45:276373,14.15,12.44,-79.95,0.23,0.23,0.92
11:22:46:45:276501,14.17,12.34,-79.94,0.16,0.22,0.87
11:22:46:45:276581,14.25,12.0,-79.78,0.25,0.18,0.76
11:22:46:45:276677,14.13,11.91,-79.63,0.11,0.22,0.9
11:22:46:45:276774,13.7,12.24,-79.56,0.18,0.19,1.1
11:22:46:45:276869,13.53,12.58,-79.46,0.12,0.08,0.95
11:22:46:45:276965,13.08,12.74,-79.39,0.18,0.14,0.93
11:22:46:46:277061,12.88,12.78,-79.28,0.17,0.19,0.92
11:22:46:47:278382,13.53,14.76,-78.98,0.31,0.18,0.89
11:22:46:47:278477,13.43,14.92,-79.07,0.23,0.18,0.91
11:22:46:47:278575,13.38,14.83,-79.02,0.29,0.2,0.92
11:22:46:47:278670,13.41,14.86,-78.94,0.25,0.23,0.88
11:22:46:47:278765,13.27,14.7,-78.95,0.22,0.21,0.93
11:22:46:47:278877,13.17,14.63,-78.96,0.29,0.19,0.9
11:22:46:47:278973,13.07,14.47,-78.94,0.25,0.24,0.98
11:22:46:48:279069,13.06,14.41,-78.91,0.26,0.27,0.93
11:22:46:49:280370,13.17,14.76,-77.88,0.28,0.27,0.99
11:22:46:49:280467,13.24,14.92,-77.78,0.23,0.26,1.02
11:22:46:49:280562,13.1,15.22,-77.66,0.3,0.22,0.94
11:22:46:49:280660,12.73,15.14,-77.63,0.2,0.2,0.99
11:22:46:49:280786,12.63,15.21,-77.53,0.24,0.19,0.98
11:22:46:49:280880,12.72,14.98,-77.36,0.19,0.17,0.93
11:22:46:49:280963,12.68,14.72,-77.24,0.27,0.21,0.88
11:22:46:50:281090,12.83,14.72,-77.12,0.24,0.2,0.9
11:22:46:51:282380,10.73,15.15,-76.69,0.25,0.17,0.93
11:22:46:51:282476,10.5,15.31,-76.73,0.25,0.14,0.98
11:22:46:51:282573,10.4,15.48,-76.72,0.22,0.17,0.9
11:22:46:51:282669,10.41,15.52,-76.77,0.27,0.18,0.94
11:22:46:51:282766,10.43,15.37,-76.73,0.3,0.15,0.92
11:22:46:51:282862,10.41,15.27,-76.74,0.23,0.14,0.93
11:22:46:51:282989,10.33,15.27,-76.79,0.23,0.18,0.95
11:22:46:52:283086,10.23,15.45,-76.86,0.29,0.2,0.93
11:22:46:53:284381,12.35,15.58,-77.23,0.28,0.23,0.93
11:22:46:53:284477,12.51,15.61,-77.25,0.24,0.32,0.96
11:22:46:53:284604,12.4,15.51,-77.35,0.23,0.16,0.91
11:22:46:53:284684,12.47,15.58,-77.41,0.28,0.17,0.95
11:22:46:53:284781,12.64,15.53,-77.43,0.24,0.19,0.9
11:22:46:53:284877,12.79,15.5,-77.47,0.3,0.24,0.91
11:22:46:53:284972,13.02,15.36,-77.47,0.24,0.2,0.94
11:22:46:54:285068,13.09,15.23,-77.53,0.23,0.25,0.93
11:22:46:55:286368,12.79,14.9,-77.91,0.26,0.24,0.86
11:22:46:55:286463,13.11,14.99,-77.81,0.28,0.17,0.84
11:22:46:55:286575,13.3,14.8,-77.72,0.18,0.23,0.95
11:22:46:55:286686,13.23,14.49,-77.69,0.24,0.3,0.95
11:22:46:55:286783,13.15,14.58,-77.67,0.27,0.16,0.93
11:22:46:55:286878,12.89,14.55,-77.73,0.21,0.17,0.89
11:22:46:55:286973,12.96,14.57,-77.78,0.27,0.16,0.87
11:22:46:56:287072,13.04,14.43,-77.71,0.19,0.2,0.89
11:22:46:57:288406,10.49,17.29,-77.83,0.27,0.14,0.89
11:22:46:57:288468,10.68,17.38,-77.8,0.34,0.19,0.91
11:22:46:57:288564,11.1,17.32,-77.7,0.24,0.2,0.93
11:22:46:57:288710,11.31,17.23,-77.69,0.33,0.18,0.95
11:22:46:57:288758,11.41,17.23,-77.71,0.25,0.21,0.92
11:22:46:57:288886,11.55,17.17,-77.7,0.32,0.18,0.85
11:22:46:57:288980,11.86,17.15,-77.78,0.27,0.22,0.89
11:22:46:58:289077,12.19,17.08,-77.9,0.31,0.21,0.92
11:22:46:59:290373,9.79,18.14,-80.33,0.3,0.07,0.87
11:22:46:59:290462,9.37,17.9,-80.59,0.23,0.11,0.93
11:22:46:59:290589,9.19,17.75,-80.76,0.36,0.13,0.88
11:22:46:59:290654,8.82,17.47,-80.99,0.35,0.1,0.91
11:22:46:59:290766,8.59,17.33,-81.19,0.22,0.19,0.92
11:22:46:59:290878,8.78,17.12,-81.24,0.24,0.12,0.91
11:22:46:59:291004,8.99,17.11,-81.22,0.29,0.17,0.89
11:22:47:0:291069,9.08,16.84,-81.26,0.21,0.11,0.92
11:22:47:1:292373,12.0,16.68,-80.22,0.25,0.2,0.9
11:22:47:1:292485,11.9,16.29,-80.14,0.28,0.15,0.94
11:22:47:1:292565,12.05,16.03,-80.02,0.3,0.17,0.88
11:22:47:1:292661,11.89,15.89,-80.02,0.27,0.15,0.84
11:22:47:1:292774,11.97,15.8,-79.98,0.24,0.17,0.84
11:22:47:1:292869,12.07,15.51,-79.96,0.27,0.26,0.92
11:22:47:1:292965,12.42,15.25,-79.85,0.26,0.22,0.88
11:22:47:2:293077,12.46,14.93,-79.78,0.3,0.19,0.95
11:22:47:3:294364,13.11,15.0,-78.67,0.32,0.31,0.86
11:22:47:3:294461,13.23,15.41,-78.68,0.16,0.19,0.83
11:22:47:3:294572,13.1,15.22,-78.79,0.26,0.19,0.93
11:22:47:3:294686,13.44,15.13,-78.76,0.22,0.23,0.96
11:22:47:3:294763,13.46,15.05,-78.83,0.25,0.23,0.94
11:22:47:3:294859,13.24,15.01,-78.96,0.23,0.2,0.94
11:22:47:3:294957,13.28,15.2,-79.02,0.28,0.17,0.92
11:22:47:4:295084,13.49,15.29,-78.99,0.22,0.22,0.92
11:22:47:5:296366,13.39,14.8,-79.13,0.22,0.22,1.0
11:22:47:5:296479,13.47,14.92,-79.15,0.22,0.23,0.92
11:22:47:5:296576,13.53,15.1,-79.11,0.29,0.21,0.9
11:22:47:5:296671,13.58,15.12,-79.03,0.21,0.28,1.07
11:22:47:5:296768,13.47,15.19,-79.06,0.23,0.26,0.93
11:22:47:5:296862,13.41,15.48,-79.14,0.28,0.24,0.93
11:22:47:5:296958,13.06,15.51,-79.28,0.24,0.16,0.93
11:22:47:6:297086,13.0,15.68,-79.36,0.3,0.23,0.92
11:22:47:7:298370,13.85,14.93,-78.46,0.25,0.2,0.95
11:22:47:7:298482,13.55,14.92,-78.44,0.28,0.26,0.95
11:22:47:7:298564,13.45,15.13,-78.41,0.27,0.22,0.88
11:22:47:7:298675,13.53,15.38,-78.33,0.27,0.2,0.9
11:22:47:7:298771,13.54,15.33,-78.28,0.26,0.19,0.95
11:22:47:7:298866,13.72,15.4,-78.19,0.27,0.22,0.9
11:22:47:7:298963,13.81,15.51,-78.13,0.3,0.29,0.95
11:22:47:8:299092,13.64,15.45,-78.18,0.27,0.23,0.98
11:22:47:9:300367,13.36,15.01,-78.54,0.21,0.15,0.94
11:22:47:9:300465,13.51,15.17,-78.54,0.28,0.18,0.91
11:22:47:9:300560,13.59,15.22,-78.58,0.24,0.26,0.95
11:22:47:9:300687,13.38,15.09,-78.71,0.27,0.25,0.97
11:22:47:9:300785,13.35,15.17,-78.76,0.22,0.26,0.91
11:22:47:9:300881,13.23,15.04,-78.82,0.26,0.23,1.01
11:22:47:9:300976,13.09,14.97,-78.91,0.25,0.2,0.86
11:22:47:10:301088,13.05,15.03,-78.93,0.26,0.2,0.88
11:22:47:11:302369,13.95,13.9,-78.87,0.25,0.21,0.97
11:22:47:11:302480,14.01,13.77,-78.83,0.22,0.22,0.97
11:22:47:11:302578,14.24,13.77,-78.76,0.3,0.31,0.85
11:22:47:11:302673,14.18,13.67,-78.75,0.25,0.22,0.98
11:22:47:11:302769,14.08,13.69,-78.78,0.23,0.27,0.93
11:22:47:11:302865,13.99,13.75,-78.79,0.24,0.21,0.89
11:22:47:11:302976,14.06,13.94,-78.77,0.24,0.2,0.94
11:22:47:12:303072,14.06,13.94,-78.77,0.19,0.19,0.91
11:22:47:13:304377,14.09,13.26,-79.12,0.22,0.22,0.94
11:22:47:13:304489,14.16,13.01,-79.13,0.26,0.19,0.97
11:22:47:13:304570,14.28,12.75,-79.16,0.17,0.27,0.92
11:22:47:13:304664,14.46,12.51,-79.15,0.14,0.23,0.93
11:22:47:13:304794,14.44,12.36,-79.18,0.2,0.25,0.95
11:22:47:13:304858,14.54,12.33,-79.2,0.21,0.26,0.92
11:22:47:13:304969,14.69,12.14,-79.19,0.19,0.25,0.98
11:22:47:14:305065,14.73,11.95,-79.22,0.2,0.27,0.96
11:22:47:14:305367,15.13,11.51,-79.24,0.19,0.26,0.94
11:22:47:14:305464,15.28,11.41,-79.24,0.15,0.3,0.97
11:22:47:14:305558,15.48,11.3,-79.26,0.17,0.28,0.93
11:22:47:14:305670,15.64,11.11,-79.28,0.18,0.27,0.94
11:22:47:14:305767,15.88,10.96,-79.29,0.18,0.29,0.95
11:22:47:14:305863,16.15,10.84,-79.29,0.15,0.28,0.93
11:22:47:14:306006,16.17,10.84,-79.34,0.19,0.25,0.91
11:22:47:15:306070,16.18,10.91,-79.36,0.17,0.28,0.94
11:22:47:16:307364,14.96,11.93,-80.37,0.19,0.23,0.92
11:22:47:16:307460,14.85,11.97,-80.37,0.18,0.22,0.94
11:22:47:16:307572,14.71,11.94,-80.44,0.22,0.25,0.95
11:22:47:16:307669,14.57,11.97,-80.51,0.19,0.24,0.93
11:22:47:16:307765,14.43,12.1,-80.58,0.21,0.23,0.95
11:22:47:16:307859,14.39,12.33,-80.6,0.2,0.23,0.92
11:22:47:16:307987,14.36,12.37,-80.63,0.22,0.23,0.93
11:22:47:17:308069,14.2,12.32,-80.71,0.2,0.23,0.97
11:22:47:18:309373,13.44,11.95,-81.02,0.21,0.23,1.0
11:22:47:18:309468,13.45,11.85,-81.03,0.19,0.22,0.99
11:22:47:18:309565,13.52,11.75,-80.99,0.2,0.22,0.97
11:22:47:18:309662,13.57,11.59,-80.98,0.18,0.21,0.95
11:22:47:18:309756,13.69,11.54,-80.94,0.19,0.26,0.93
11:22:47:18:309870,13.79,11.62,-80.91,0.19,0.23,0.94
11:22:47:18:309981,13.9,11.66,-80.88,0.19,0.24,0.93
11:22:47:19:310076,13.93,11.61,-80.87,0.2,0.22,0.93
11:22:47:20:311364,13.21,12.51,-80.83,0.23,0.23,0.96
11:22:47:20:311475,13.16,12.56,-80.8,0.23,0.22,0.96
11:22:47:20:311590,13.14,12.6,-80.82,0.23,0.22,0.94
11:22:47:20:311670,13.13,12.66,-80.83,0.23,0.23,0.95
11:22:47:20:311780,13.12,12.67,-80.81,0.24,0.22,0.92
11:22:47:20:311876,13.01,12.73,-80.84,0.24,0.21,0.94
11:22:47:20:311973,12.86,12.87,-80.86,0.24,0.2,0.95
11:22:47:21:312069,12.69,13.09,-80.9,0.25,0.19,0.96
11:22:47:22:313366,12.6,13.29,-80.76,0.22,0.2,0.96
11:22:47:22:313461,12.71,13.21,-80.74,0.23,0.19,0.95
11:22:47:22:313556,12.86,13.12,-80.71,0.19,0.22,0.96
11:22:47:22:313684,12.6,13.33,-80.75,0.28,0.15,0.94
11:22:47:22:313780,11.79,14.0,-80.93,0.28,0.14,0.93
11:22:47:22:313876,11.36,14.31,-81.01,0.26,0.17,0.93
11:22:47:22:313972,11.34,14.29,-80.97,0.24,0.18,0.94
11:22:47:23:314083,11.1,14.52,-80.99,0.27,0.15,0.94
11:22:47:24:315393,10.11,15.31,-80.91,0.24,0.16,0.93
11:22:47:24:315456,10.09,15.32,-80.89,0.28,0.16,0.92
11:22:47:24:315601,10.08,15.32,-80.87,0.26,0.18,0.95
11:22:47:24:315683,10.08,15.33,-80.86,0.27,0.15,0.95
11:22:47:24:315794,10.07,15.35,-80.84,0.25,0.17,0.92
11:22:47:24:315872,10.07,15.37,-80.83,0.28,0.17,0.93
11:22:47:24:315984,10.06,15.37,-80.8,0.27,0.17,0.94
11:22:47:25:316081,10.06,15.37,-80.79,0.26,0.15,0.93
11:22:47:25:316387,10.05,15.39,-80.74,0.27,0.17,0.93
11:22:47:25:316468,10.04,15.38,-80.73,0.26,0.16,0.94
11:22:47:25:316578,10.04,15.38,-80.71,0.27,0.14,0.93
11:22:47:25:316690,10.05,15.4,-80.7,0.24,0.16,0.93
11:22:47:25:316771,10.04,15.4,-80.66,0.27,0.17,0.92
11:22:47:25:316882,10.03,15.38,-80.63,0.26,0.18,0.94
11:22:47:25:316979,10.04,15.38,-80.6,0.28,0.14,0.95
11:22:47:26:317073,10.04,15.38,-80.56,0.25,0.17,0.92
11:22:47:26:317395,10.03,15.38,-80.49,0.26,0.15,0.94
11:22:47:26:317457,10.04,15.38,-80.48,0.26,0.16,0.94
11:22:47:26:317586,10.04,15.4,-80.47,0.26,0.15,0.93
11:22:47:26:317713,10.03,15.4,-80.47,0.27,0.16,0.93
11:22:47:26:317792,10.03,15.4,-80.47,0.26,0.17,0.94
11:22:47:26:317857,10.03,15.4,-80.46,0.26,0.15,0.93
11:22:47:26:317983,10.04,15.4,-80.44,0.24,0.16,0.94
11:22:47:27:318096,10.04,15.4,-80.42,0.28,0.16,0.92
11:22:47:28:319408,10.02,15.35,-79.67,0.27,0.17,0.93
11:22:47:28:319488,10.02,15.34,-79.61,0.26,0.18,0.94
11:22:47:28:319583,10.01,15.35,-79.57,0.27,0.15,0.95
11:22:47:28:319695,10.01,15.35,-79.52,0.25,0.17,0.92
11:22:47:28:319774,10.01,15.36,-79.48,0.28,0.16,0.93
11:22:47:28:319887,10.01,15.36,-79.46,0.27,0.17,0.93
11:22:47:28:319998,10.02,15.36,-79.43,0.27,0.15,0.94
11:22:47:29:320063,10.04,15.38,-79.41,0.26,0.16,0.95
11:22:47:30:321383,10.05,15.39,-78.93,0.25,0.17,0.94
11:22:47:30:321470,10.04,15.41,-78.9,0.26,0.15,0.93
11:22:47:30:321582,10.04,15.41,-78.89,0.27,0.17,0.93
11:22:47:30:321679,10.03,15.4,-78.87,0.27,0.16,0.95
11:22:47:30:321774,10.04,15.39,-78.85,0.26,0.15,0.93
11:22:47:30:321887,10.04,15.41,-78.83,0.25,0.16,0.93
11:22:47:30:321981,10.04,15.41,-78.81,0.27,0.16,0.92
11:22:47:31:322079,10.03,15.4,-78.79,0.26,0.18,0.94
11:22:47:32:323380,10.05,15.51,-79.43,0.26,0.17,0.94
11:22:47:32:323474,10.05,15.51,-79.49,0.27,0.15,0.95
11:22:47:32:323602,10.05,15.52,-79.56,0.24,0.17,0.92
11:22:47:32:323682,10.05,15.51,-79.6,0.27,0.17,0.93
11:22:47:32:323777,10.05,15.5,-79.65,0.26,0.17,0.94
11:22:47:32:323890,10.05,15.51,-79.7,0.27,0.14,0.94
11:22:47:32:324017,10.06,15.5,-79.75,0.25,0.17,0.94
11:22:47:33:324081,10.06,15.51,-79.8,0.27,0.16,0.93
11:22:47:34:325373,10.03,15.36,-79.35,0.27,0.15,0.92
11:22:47:34:325485,10.03,15.35,-79.29,0.27,0.17,0.93
11:22:47:34:325580,10.02,15.35,-79.23,0.28,0.16,0.95
11:22:47:34:325692,10.02,15.33,-79.15,0.26,0.16,0.93
11:22:47:34:325773,10.03,15.35,-79.11,0.27,0.16,0.94
11:22:47:34:325884,10.03,15.34,-79.07,0.27,0.17,0.93
11:22:47:34:325980,10.01,15.34,-79.03,0.26,0.17,0.94
11:22:47:35:326092,10.02,15.34,-78.99,0.26,0.15,0.95
11:22:47:36:327394,10.05,15.37,-78.72,0.26,0.15,0.95
11:22:47:36:327485,10.04,15.39,-78.71,0.25,0.16,0.93
11:22:47:36:327580,10.04,15.38,-78.7,0.27,0.16,0.92
11:22:47:36:327678,10.04,15.38,-78.69,0.26,0.17,0.94
11:22:47:36:327773,10.05,15.38,-78.67,0.26,0.15,0.94
11:22:47:36:327884,10.05,15.38,-78.65,0.23,0.17,0.94
11:22:47:36:327998,10.03,15.4,-78.65,0.27,0.16,0.93
11:22:47:37:328077,10.04,15.42,-78.75,0.26,0.18,0.93
11:22:47:38:329386,10.05,15.45,-79.35,0.26,0.18,0.93
11:22:47:38:329498,10.05,15.44,-79.37,0.28,0.15,0.95
11:22:47:38:329579,10.05,15.44,-79.39,0.24,0.17,0.92
11:22:47:38:329674,10.05,15.45,-79.4,0.27,0.17,0.93
11:22:47:38:329785,10.04,15.44,-79.41,0.26,0.18,0.94
11:22:47:38:329881,10.03,15.44,-79.43,0.26,0.15,0.94
11:22:47:38:329979,10.04,15.43,-79.45,0.25,0.15,0.94
11:22:47:39:330075,10.04,15.45,-79.47,0.25,0.15,0.93
11:22:47:40:331374,10.05,15.46,-79.89,0.26,0.15,0.93
11:22:47:40:331486,10.05,15.44,-79.93,0.28,0.16,0.93
11:22:47:40:331583,10.04,15.46,-79.97,0.26,0.16,0.95
11:22:47:40:331693,10.05,15.46,-80.02,0.25,0.15,0.93
11:22:47:40:331759,10.06,15.47,-80.07,0.25,0.17,0.94
11:22:47:40:331874,10.05,15.47,-80.12,0.27,0.16,0.92
11:22:47:40:331966,10.04,15.46,-80.17,0.26,0.17,0.94
11:22:47:41:332064,10.05,15.47,-80.21,0.28,0.15,0.95
11:22:47:42:333374,10.04,15.44,-80.6,0.26,0.16,0.95
11:22:47:42:333480,10.04,15.41,-80.52,0.23,0.17,0.92
11:22:47:42:333576,10.04,15.39,-80.46,0.27,0.16,0.93
11:22:47:42:333688,10.03,15.37,-80.38,0.26,0.17,0.94
11:22:47:42:333767,10.01,15.36,-80.33,0.27,0.15,0.94
11:22:47:42:333864,10.03,15.36,-80.27,0.25,0.16,0.94
11:22:47:42:333975,10.03,15.38,-80.23,0.27,0.15,0.92
11:22:47:43:334088,10.02,15.35,-80.19,0.26,0.17,0.93
11:22:47:44:335374,10.05,15.52,-80.8,0.3,0.15,0.92
11:22:47:44:335485,10.03,15.52,-80.83,0.26,0.15,0.95
11:22:47:44:335565,10.05,15.52,-80.87,0.25,0.15,0.93
11:22:47:44:335693,10.06,15.52,-80.91,0.26,0.17,0.94
11:22:47:44:335789,10.06,15.51,-80.94,0.27,0.17,0.92
11:22:47:44:335886,10.06,15.51,-81.0,0.26,0.17,0.95
11:22:47:44:335981,10.06,15.5,-81.0,0.26,0.15,0.95
11:22:47:45:336125,10.05,15.49,-81.04,0.22,0.17,0.93
11:22:47:46:337375,10.03,15.43,-81.06,0.25,0.17,0.91
11:22:47:46:337470,10.03,15.42,-81.04,0.27,0.17,0.93
11:22:47:46:337597,10.02,15.41,-81.04,0.27,0.17,0.93
11:22:47:46:337678,10.02,15.42,-81.04,0.29,0.13,0.92
11:22:47:46:337775,10.03,15.41,-81.03,0.24,0.17,0.93
11:22:47:46:337869,10.03,15.42,-80.99,0.28,0.15,0.92
11:22:47:46:337967,10.02,15.38,-80.9,0.26,0.18,0.94
11:22:47:47:338061,10.01,15.35,-80.77,0.28,0.15,0.95
11:22:47:48:339379,10.0,15.3,-79.65,0.28,0.15,0.95
11:22:47:48:339475,10.01,15.3,-79.59,0.25,0.17,0.92
11:22:47:48:339571,10.02,15.33,-79.55,0.28,0.17,0.94
11:22:47:48:339682,10.01,15.33,-79.51,0.26,0.17,0.93
11:22:47:48:339779,10.01,15.34,-79.49,0.26,0.15,0.94
11:22:47:48:339890,10.01,15.34,-79.45,0.26,0.15,0.95
11:22:47:48:339970,10.01,15.35,-79.43,0.24,0.16,0.93
11:22:47:49:340065,10.02,15.35,-79.39,0.27,0.16,0.93
11:22:47:50:341381,10.03,15.41,-79.27,0.27,0.17,0.93
11:22:47:50:341456,10.02,15.4,-79.24,0.27,0.16,0.94
11:22:47:50:341586,10.03,15.42,-79.29,0.27,0.14,0.94
11:22:47:50:341681,10.04,15.44,-79.34,0.24,0.16,0.93
11:22:47:50:341776,10.04,15.45,-79.39,0.28,0.16,0.92
11:22:47:50:341871,10.04,15.45,-79.44,0.26,0.18,0.94
11:22:47:50:341969,10.05,15.45,-79.46,0.28,0.15,0.95
11:22:47:51:342063,10.05,15.46,-79.51,0.25,0.17,0.92
11:22:47:52:343382,10.03,15.43,-79.54,0.24,0.17,0.92
11:22:47:52:343459,10.04,15.43,-79.55,0.28,0.16,0.93
11:22:47:52:343573,10.02,15.42,-79.54,0.26,0.17,0.94
11:22:47:52:343669,10.02,15.42,-79.54,0.26,0.15,0.94
11:22:47:52:343764,10.03,15.41,-79.53,0.26,0.16,0.95
11:22:47:52:343859,10.02,15.43,-79.55,0.25,0.16,0.94
11:22:47:52:343957,10.02,15.43,-79.55,0.26,0.16,0.93
11:22:47:53:344084,10.0,15.43,-79.56,0.26,0.16,0.95
11:22:47:54:345376,10.02,15.42,-79.54,0.27,0.16,0.95
11:22:47:54:345473,10.02,15.42,-79.55,0.26,0.15,0.93
11:22:47:54:345582,10.03,15.44,-79.55,0.25,0.16,0.94
11:22:47:54:345680,10.03,15.43,-79.54,0.28,0.16,0.91
11:22:47:54:345774,10.01,15.41,-79.54,0.26,0.17,0.95
11:22:47:54:345871,10.03,15.41,-79.53,0.27,0.15,0.95
11:22:47:54:345966,10.03,15.41,-79.53,0.24,0.17,0.92
11:22:47:55:346061,10.03,15.41,-79.53,0.28,0.16,0.92
11:22:47:56:347382,10.03,15.42,-79.5,0.28,0.16,0.92
11:22:47:56:347471,10.02,15.41,-79.52,0.26,0.17,0.94
11:22:47:56:347568,10.02,15.42,-79.52,0.27,0.15,0.93
11:22:47:56:347682,10.03,15.41,-79.52,0.25,0.17,0.94
11:22:47:56:347778,10.02,15.43,-79.54,0.27,0.16,0.93
11:22:47:56:347872,10.02,15.42,-79.53,0.26,0.17,0.93
11:22:47:56:347967,10.01,15.42,-79.55,0.27,0.16,0.95
11:22:47:57:348081,10.01,15.41,-79.55,0.26,0.15,0.93
11:22:47:58:349375,10.02,15.41,-79.52,0.25,0.15,0.93
11:22:47:58:349471,10.02,15.44,-79.52,0.25,0.17,0.94
11:22:47:58:349568,10.02,15.43,-79.51,0.28,0.16,0.92
11:22:47:58:349696,10.01,15.43,-79.52,0.26,0.17,0.94
11:22:47:58:349775,10.03,15.42,-79.52,0.27,0.15,0.94
11:22:47:58:349872,10.03,15.43,-79.53,0.24,0.17,0.92
11:22:47:58:349967,10.03,15.43,-79.53,0.27,0.16,0.93
11:22:47:59:350063,10.02,15.43,-79.55,0.26,0.17,0.95
11:22:48:0:351376,10.0,15.43,-79.54,0.26,0.16,0.94
11:22:48:0:351503,10.0,15.44,-79.55,0.27,0.15,0.94
11:22:48:0:351568,10.01,15.44,-79.55,0.25,0.17,0.94
11:22:48:0:351680,10.01,15.45,-79.56,0.27,0.15,0.93
11:22:48:0:351775,10.01,15.43,-79.55,0.26,0.18,0.93
11:22:48:0:351872,10.0,15.43,-79.55,0.27,0.16,0.96
11:22:48:0:351966,10.01,15.41,-79.54,0.25,0.15,0.93
11:22:48:1:352063,10.01,15.42,-79.53,0.27,0.16,0.94
11:22:48:2:353392,10.01,15.45,-79.54,0.27,0.16,0.94
11:22:48:2:353473,10.01,15.44,-79.53,0.26,0.17,0.94
11:22:48:2:353569,10.0,15.43,-79.53,0.26,0.16,0.94
11:22:48:2:353664,10.02,15.43,-79.53,0.26,0.15,0.95
11:22:48:2:353775,10.01,15.45,-79.54,0.25,0.15,0.93
11:22:48:2:353873,10.0,15.43,-79.54,0.28,0.16,0.93
11:22:48:2:353968,9.99,15.44,-79.54,0.27,0.16,0.95
11:22:48:3:354065,9.99,15.43,-79.53,0.26,0.14,0.94
11:22:48:4:355369,10.02,15.4,-79.52,0.26,0.14,0.94
11:22:48:4:355478,10.01,15.42,-79.52,0.24,0.17,0.94
11:22:48:4:355592,10.01,15.41,-79.52,0.27,0.16,0.92
11:22:48:4:355673,10.01,15.41,-79.52,0.26,0.17,0.94
11:22:48:4:355767,10.02,15.41,-79.51,0.27,0.15,0.95
11:22:48:4:355877,10.01,15.42,-79.51,0.24,0.17,0.92
11:22:48:4:355974,10.02,15.43,-79.51,0.27,0.17,0.93
11:22:48:5:356071,10.01,15.42,-79.51,0.26,0.17,0.94
11:22:48:6:357387,9.74,15.63,-79.59,0.27,0.15,0.94
11:22:48:6:357463,9.5,15.83,-79.65,0.28,0.12,0.94
11:22:48:6:357575,9.19,16.09,-79.72,0.28,0.13,0.95
11:22:48:6:357673,8.8,16.37,-79.82,0.32,0.11,0.92
11:22:48:6:357783,8.4,16.68,-79.9,0.31,0.1,0.95
11:22:48:6:357881,8.05,16.97,-79.97,0.3,0.1,0.94
11:22:48:6:357976,7.7,17.27,-80.07,0.31,0.09,0.93
11:22:48:7:358071,7.35,17.52,-80.14,0.33,0.11,0.93
11:22:48:8:359472,5.3,19.25,-80.66,0.36,0.06,0.93
11:22:48:8:359568,4.97,19.55,-80.75,0.36,0.07,0.93
11:22:48:8:359681,4.58,19.82,-80.91,0.37,0.04,0.95
11:22:48:8:359760,4.18,20.05,-81.03,0.38,0.01,0.94
11:22:48:8:359871,3.81,20.36,-81.19,0.38,0.05,0.91
11:22:48:8:359985,3.4,20.66,-81.35,0.39,-0.01,0.92
11:22:48:9:360081,2.94,20.95,-81.51,0.37,-0.0,0.93
11:22:48:10:361482,3.9,20.11,-80.9,0.35,0.11,0.95
11:22:48:10:361578,4.27,19.96,-80.76,0.34,0.06,0.93
11:22:48:10:361674,4.24,20.11,-80.76,0.34,0.05,0.95
11:22:48:10:361787,3.89,20.32,-80.87,0.4,0.02,0.87
11:22:48:10:361883,3.65,20.42,-80.94,0.35,0.03,0.93
11:22:48:10:361977,3.51,20.48,-80.97,0.38,0.04,0.9
11:22:48:11:362075,3.24,20.66,-81.04,0.36,0.07,0.93
11:22:48:12:363468,3.73,19.15,-79.88,0.31,0.17,0.97
11:22:48:12:363565,4.18,18.57,-79.71,0.25,0.09,0.98
11:22:48:12:363677,4.64,18.02,-79.58,0.3,0.13,0.94
11:22:48:12:363772,5.01,17.64,-79.51,0.3,0.11,0.95
11:22:48:12:363869,5.33,17.59,-79.46,0.32,0.07,0.9
11:22:48:12:363964,5.58,17.53,-79.43,0.29,0.1,0.97
11:22:48:13:364061,5.8,17.33,-79.46,0.26,0.12,0.98
11:22:48:14:365461,4.76,19.05,-81.0,0.42,0.2,0.83
11:22:48:14:365558,4.95,19.46,-80.94,0.3,0.09,0.91
11:22:48:14:365669,4.72,19.39,-80.99,0.3,0.03,0.89
11:22:48:14:365781,4.6,19.3,-81.05,0.43,-0.08,0.88
11:22:48:14:365875,5.11,19.34,-80.91,0.22,0.1,0.99
11:22:48:14:365971,5.74,18.96,-80.67,0.33,0.1,1.06
11:22:48:15:366069,5.63,18.7,-80.76,0.26,0.21,0.8
11:22:48:16:367458,8.38,17.58,-80.71,0.29,0.24,1.03
11:22:48:16:367553,8.3,17.57,-80.75,0.28,0.22,1.0
11:22:48:16:367666,7.87,17.79,-80.96,0.36,0.11,0.89
11:22:48:16:367762,7.65,17.86,-81.12,0.3,0.08,0.86
11:22:48:16:367858,7.81,17.57,-81.15,0.23,0.06,0.94
11:22:48:16:367955,8.4,17.16,-81.1,0.17,0.07,0.9
11:22:48:17:368098,9.11,16.97,-81.0,0.38,0.16,0.91
11:22:48:18:369478,9.53,15.41,-82.38,0.2,0.13,0.91
11:22:48:18:369558,9.8,15.32,-82.23,0.28,0.12,0.97
11:22:48:18:369671,9.71,15.11,-82.17,0.19,0.16,1.03
11:22:48:18:369766,9.4,15.41,-82.2,0.22,0.08,0.94
11:22:48:18:369879,9.02,15.72,-82.27,0.33,0.06,0.9
11:22:48:18:369974,8.74,16.27,-82.32,0.34,0.08,0.86
11:22:48:19:370071,8.55,16.49,-82.38,0.3,0.07,0.89
11:22:48:20:371471,5.63,18.44,-84.12,0.36,0.13,0.92
11:22:48:20:371568,5.91,18.61,-84.07,0.35,0.12,0.91
11:22:48:20:371665,6.16,18.49,-84.02,0.27,0.18,0.95
11:22:48:20:371777,6.39,18.5,-84.03,0.31,0.17,0.95
11:22:48:20:371873,6.66,18.49,-84.05,0.27,0.16,0.92
11:22:48:20:371984,7.02,18.53,-84.04,0.27,0.17,0.98
11:22:48:21:372080,7.27,18.4,-84.05,0.28,0.16,1.0
11:22:48:22:373377,9.45,16.23,-84.02,0.28,0.19,0.97
11:22:48:22:373485,9.61,15.99,-83.97,0.27,0.15,0.98
11:22:48:22:373564,9.89,15.97,-83.91,0.27,0.22,0.97
11:22:48:22:373676,10.17,15.8,-83.86,0.27,0.16,0.94
11:22:48:22:373773,10.4,15.51,-83.82,0.25,0.17,0.89
11:22:48:22:373869,10.76,15.29,-83.73,0.22,0.19,0.92
11:22:48:22:373965,11.12,14.96,-83.63,0.23,0.22,0.93
11:22:48:23:374061,11.29,14.67,-83.59,0.24,0.16,0.91
11:22:48:24:375492,12.15,13.34,-83.67,0.2,0.2,0.95
11:22:48:24:375574,12.26,13.35,-83.74,0.23,0.23,0.98
11:22:48:24:375671,12.31,13.33,-83.85,0.27,0.23,0.93
11:22:48:24:375766,12.3,13.42,-83.99,0.24,0.18,0.96
11:22:48:24:375877,12.24,13.42,-84.11,0.24,0.23,0.99
11:22:48:24:375975,12.2,13.48,-84.2,0.18,0.19,0.93
11:22:48:25:376086,12.29,13.49,-84.25,0.22,0.2,0.95
11:22:48:26:377465,12.56,12.49,-83.35,0.2,0.16,0.9
11:22:48:26:377561,12.66,12.32,-83.24,0.23,0.22,0.93
11:22:48:26:377674,12.75,12.3,-83.15,0.19,0.21,0.96
11:22:48:26:377770,12.83,12.25,-83.05,0.22,0.16,0.89
11:22:48:26:377866,12.84,12.12,-82.97,0.2,0.22,0.96
11:22:48:26:377963,12.79,12.11,-82.92,0.24,0.24,1.0
11:22:48:27:378057,12.65,12.06,-82.88,0.22,0.17,0.93
11:22:48:28:379489,12.34,12.71,-82.78,0.24,0.21,0.96
11:22:48:28:379553,12.29,12.66,-82.77,0.18,0.18,0.98
11:22:48:28:379682,12.22,12.77,-82.78,0.26,0.12,0.9
11:22:48:28:379779,12.23,12.86,-82.75,0.23,0.21,0.96
11:22:48:28:379876,12.2,13.13,-82.78,0.26,0.21,0.98
11:22:48:28:379985,11.94,13.36,-82.87,0.22,0.12,0.91
11:22:48:29:380066,11.73,13.41,-82.95,0.2,0.18,0.9
11:22:48:30:381472,12.44,13.1,-83.11,0.2,0.16,1.01
11:22:48:30:381583,12.08,12.92,-83.24,0.15,0.12,0.88
11:22:48:30:381680,12.16,13.18,-83.27,0.19,0.18,0.87
11:22:48:30:381775,12.46,13.63,-83.21,0.39,0.24,0.85
11:22:48:30:381886,12.69,13.6,-83.13,0.18,0.14,1.0
11:22:48:30:381967,13.09,13.82,-83.02,0.17,0.18,1.01
11:22:48:31:382078,13.12,13.79,-83.02,0.19,0.24,0.97
11:22:48:32:383474,13.77,12.82,-82.91,0.22,0.22,0.93
11:22:48:32:383569,13.7,12.65,-83.17,0.23,0.2,0.91
11:22:48:32:383666,13.89,12.62,-83.39,0.18,0.22,0.99
11:22:48:32:383775,13.77,12.86,-83.71,0.2,0.2,0.91
11:22:48:32:383873,13.91,13.02,-83.96,0.22,0.23,0.94
11:22:48:32:383969,14.18,13.04,-84.21,0.22,0.25,1.01
11:22:48:33:384064,14.09,13.0,-84.54,0.21,0.21,0.98
11:22:48:34:385490,13.78,13.69,-87.31,0.21,0.26,1.01
11:22:48:34:385587,13.64,13.54,-87.44,0.25,0.2,0.95
11:22:48:34:385698,13.51,13.61,-87.51,0.24,0.24,0.9
11:22:48:34:385763,13.59,13.65,-87.56,0.23,0.19,0.88
11:22:48:34:385876,13.61,13.46,-87.63,0.28,0.23,0.96
11:22:48:34:385988,13.45,13.22,-87.67,0.2,0.22,0.96
11:22:48:35:386084,13.3,13.23,-87.73,0.22,0.2,0.93
11:22:48:36:387489,12.12,14.82,-87.32,0.28,0.17,0.96
11:22:48:36:387584,12.17,15.02,-87.15,0.26,0.19,0.92
11:22:48:36:387666,12.28,15.08,-86.98,0.29,0.19,0.88
11:22:48:36:387763,12.27,15.23,-86.84,0.26,0.2,0.96
11:22:48:36:387890,12.08,15.04,-86.75,0.24,0.2,0.99
11:22:48:36:387985,11.79,14.7,-86.67,0.21,0.19,0.94
11:22:48:37:388082,11.97,14.59,-86.48,0.23,0.19,0.88
11:22:48:38:389473,14.32,12.8,-84.81,0.24,0.22,0.92
11:22:48:38:389569,14.13,12.86,-84.77,0.21,0.2,0.93
11:22:48:38:389666,13.79,12.91,-84.74,0.22,0.21,0.92
11:22:48:38:389776,13.45,13.35,-84.74,0.27,0.17,0.91
11:22:48:38:389873,13.54,13.7,-84.64,0.26,0.22,0.96
11:22:48:38:389985,13.59,13.49,-84.58,0.22,0.21,0.93
11:22:48:39:390080,13.54,13.39,-84.54,0.21,0.23,0.95
11:22:48:40:391382,14.39,12.95,-84.95,0.22,0.23,0.91
11:22:48:40:391472,14.57,13.02,-84.98,0.23,0.25,0.92
11:22:48:40:391571,14.65,13.03,-85.04,0.24,0.23,0.92
11:22:48:40:391665,14.65,13.03,-85.12,0.24,0.24,0.91
11:22:48:40:391777,14.54,13.11,-85.23,0.26,0.23,0.94
11:22:48:40:391872,14.34,13.27,-85.35,0.25,0.21,0.95
11:22:48:40:391969,13.96,13.56,-85.52,0.26,0.16,0.96
11:22:48:41:392064,13.41,13.89,-85.7,0.24,0.17,0.92
11:22:48:42:393478,11.68,15.19,-86.28,0.26,0.18,0.94
11:22:48:42:393575,11.75,15.11,-86.27,0.26,0.19,0.94
11:22:48:42:393686,11.75,15.09,-86.29,0.27,0.18,0.92
11:22:48:42:393781,11.69,15.1,-86.32,0.26,0.2,0.93
11:22:48:42:393878,11.66,15.14,-86.35,0.27,0.19,0.95
11:22:48:42:393974,11.7,15.08,-86.37,0.23,0.19,0.93
11:22:48:43:394085,11.74,15.03,-86.39,0.25,0.19,0.92
11:22:48:44:395370,11.68,15.1,-86.29,0.28,0.18,0.93
11:22:48:44:395482,11.65,15.13,-86.25,0.25,0.19,0.95
11:22:48:44:395579,11.71,15.06,-86.17,0.25,0.17,0.93
11:22:48:44:395675,11.86,14.94,-86.09,0.23,0.21,0.93
11:22:48:44:395769,12.04,14.8,-85.99,0.27,0.22,0.92
11:22:48:44:395866,12.18,14.69,-85.97,0.24,0.2,0.92
11:22:48:44:395977,12.3,14.6,-85.97,0.24,0.2,0.94
11:22:48:45:396071,11.93,14.91,-86.05,0.31,0.14,0.92
11:22:48:46:397379,11.1,15.59,-86.72,0.26,0.2,0.94
11:22:48:46:397475,11.09,15.59,-86.74,0.28,0.15,0.92
11:22:48:46:397569,11.1,15.6,-86.74,0.23,0.19,0.93
11:22:48:46:397680,11.08,15.61,-86.77,0.3,0.17,0.91
11:22:48:46:397794,11.06,15.61,-86.78,0.25,0.19,0.94
11:22:48:46:397873,11.07,15.61,-86.79,0.28,0.15,0.94
11:22:48:46:397970,11.06,15.64,-86.81,0.23,0.18,0.92
11:22:48:47:398081,11.06,15.61,-86.82,0.29,0.18,0.93
11:22:48:48:399380,11.04,15.62,-86.83,0.28,0.15,0.93
11:22:48:48:399476,11.04,15.65,-86.83,0.25,0.19,0.93
11:22:48:48:399558,11.06,15.61,-86.82,0.27,0.2,0.93
11:22:48:48:399684,11.04,15.63,-86.82,0.28,0.17,0.93
11:22:48:48:399780,11.06,15.61,-86.79,0.25,0.17,0.95
11:22:48:48:399875,11.05,15.63,-86.78,0.27,0.17,0.93
11:22:48:48:399971,11.05,15.6,-86.77,0.28,0.2,0.94
11:22:48:49:400068,11.03,15.62,-86.75,0.28,0.16,0.93
11:22:48:50:401372,11.05,15.64,-86.88,0.26,0.16,0.95
11:22:48:50:401485,11.05,15.65,-86.91,0.24,0.18,0.93
11:22:48:50:401567,11.04,15.64,-86.92,0.29,0.18,0.92
11:22:48:50:401660,11.02,15.65,-86.93,0.26,0.19,0.94
11:22:48:50:401774,11.03,15.63,-86.93,0.27,0.15,0.93
11:22:48:50:401869,11.04,15.64,-86.93,0.23,0.19,0.93
11:22:48:50:401979,11.04,15.65,-86.92,0.3,0.17,0.91
11:22:48:51:402077,11.02,15.64,-86.91,0.26,0.2,0.94
11:22:48:52:403375,11.02,15.65,-87.07,0.25,0.21,0.95
11:22:48:52:403486,11.03,15.64,-87.09,0.28,0.15,0.93
11:22:48:52:403568,11.04,15.65,-87.09,0.24,0.19,0.94
11:22:48:52:403664,11.04,15.67,-87.11,0.3,0.17,0.91
11:22:48:52:403759,11.03,15.64,-87.13,0.27,0.21,0.94
11:22:48:52:403888,11.02,15.63,-87.14,0.28,0.17,0.94
11:22:48:52:403966,11.03,15.63,-87.14,0.26,0.16,0.94
11:22:48:53:404079,11.04,15.66,-87.15,0.24,0.17,0.92
11:22:48:54:405385,11.01,15.64,-87.34,0.24,0.18,0.93
11:22:48:54:405462,11.01,15.64,-87.33,0.3,0.17,0.91
11:22:48:54:405574,11.0,15.62,-87.28,0.27,0.2,0.94
11:22:48:54:405685,11.0,15.61,-87.23,0.29,0.16,0.93
11:22:48:54:405783,11.02,15.59,-87.17,0.24,0.18,0.95
11:22:48:54:405877,11.01,15.61,-87.13,0.27,0.17,0.92
11:22:48:54:405988,11.02,15.58,-87.07,0.26,0.2,0.94
11:22:48:55:406084,11.01,15.59,-87.03,0.28,0.17,0.94
11:22:48:56:407382,11.02,15.61,-86.93,0.27,0.18,0.94
11:22:48:56:407479,11.03,15.6,-86.94,0.27,0.15,0.93
11:22:48:56:407575,11.01,15.63,-86.96,0.24,0.18,0.93
11:22:48:56:407717,11.03,15.62,-86.97,0.3,0.18,0.91
11:22:48:56:407766,11.02,15.6,-86.96,0.26,0.19,0.94
11:22:48:56:407879,11.02,15.6,-86.97,0.28,0.15,0.93
11:22:48:56:407988,11.02,15.62,-86.97,0.24,0.19,0.93
11:22:48:57:408085,11.04,15.63,-86.98,0.3,0.17,0.91
11:22:48:58:409378,11.02,15.61,-87.06,0.29,0.18,0.91
11:22:48:58:409504,11.02,15.6,-87.07,0.26,0.2,0.95
11:22:48:58:409570,11.02,15.61,-87.08,0.28,0.16,0.92
11:22:48:58:409680,11.03,15.6,-87.07,0.24,0.19,0.95
11:22:48:58:409794,11.03,15.63,-87.09,0.27,0.16,0.91
11:22:48:58:409905,11.03,15.61,-87.08,0.27,0.2,0.94
11:22:48:58:409986,11.01,15.6,-87.09,0.29,0.16,0.93
11:22:48:59:410080,11.02,15.59,-87.08,0.24,0.18,0.94
11:22:49:0:411386,11.03,15.56,-86.84,0.24,0.19,0.94
11:22:49:0:411484,11.04,15.57,-86.82,0.29,0.17,0.91
11:22:49:0:411578,11.02,15.56,-86.81,0.26,0.21,0.94
11:22:49:0:411673,11.01,15.57,-86.8,0.28,0.16,0.93
11:22:49:0:411785,11.04,15.56,-86.77,0.24,0.18,0.96
11:22:49:0:411883,11.03,15.59,-86.76,0.27,0.17,0.92
11:22:49:0:411994,11.02,15.56,-86.73,0.28,0.19,0.94
11:22:49:1:412074,11.0,15.57,-86.73,0.27,0.17,0.93
11:22:49:2:413366,11.02,15.59,-86.66,0.26,0.19,0.93
11:22:49:2:413479,11.03,15.58,-86.64,0.25,0.16,0.94
11:22:49:2:413606,11.03,15.61,-86.67,0.24,0.18,0.93
11:22:49:2:413655,11.03,15.61,-86.69,0.29,0.18,0.92
11:22:49:2:413782,11.01,15.63,-86.73,0.27,0.19,0.94
11:22:49:2:413877,11.03,15.62,-86.75,0.28,0.15,0.93
11:22:49:2:413990,11.03,15.62,-86.77,0.24,0.19,0.93
11:22:49:3:414085,11.04,15.63,-86.79,0.3,0.17,0.92
11:22:49:4:415383,11.04,15.61,-86.96,0.29,0.18,0.9
11:22:49:4:415510,11.03,15.57,-86.91,0.26,0.21,0.94
11:22:49:4:415589,11.02,15.57,-86.88,0.28,0.16,0.92
11:22:49:4:415670,11.05,15.56,-86.84,0.24,0.18,0.96
11:22:49:4:415783,11.04,15.58,-86.78,0.26,0.17,0.93
11:22:49:4:415894,11.04,15.57,-86.79,0.28,0.19,0.94
11:22:49:4:415990,11.02,15.57,-86.8,0.27,0.17,0.93
11:22:49:5:416069,11.04,15.58,-86.81,0.25,0.16,0.94
11:22:49:6:417372,11.01,15.57,-86.88,0.24,0.17,0.94
11:22:49:6:417482,11.02,15.59,-86.88,0.26,0.17,0.93
11:22:49:6:417610,11.02,15.57,-86.89,0.28,0.2,0.93
11:22:49:6:417674,11.0,15.58,-86.9,0.27,0.17,0.94
11:22:49:6:417787,11.02,15.56,-86.89,0.26,0.16,0.94
11:22:49:6:417866,11.01,15.6,-86.92,0.24,0.17,0.94
11:22:49:6:417992,11.03,15.6,-86.93,0.29,0.18,0.92
11:22:49:7:418091,11.01,15.6,-86.93,0.26,0.19,0.94
11:22:49:8:419380,11.02,15.6,-86.92,0.27,0.18,0.93
11:22:49:8:419476,11.04,15.59,-86.91,0.27,0.16,0.94
11:22:49:8:419620,11.03,15.61,-86.9,0.24,0.18,0.94
11:22:49:8:419669,11.04,15.59,-86.9,0.3,0.17,0.91
11:22:49:8:419781,11.01,15.58,-86.9,0.26,0.2,0.95
11:22:49:8:419877,11.02,15.58,-86.92,0.29,0.15,0.93
11:22:49:8:419987,11.03,15.6,-86.92,0.23,0.2,0.94
11:22:49:9:420068,11.03,15.62,-86.94,0.3,0.17,0.92
11:22:49:10:421380,11.06,15.6,-86.99,0.29,0.17,0.91
11:22:49:10:421476,11.03,15.58,-86.99,0.26,0.21,0.94
11:22:49:10:421571,11.03,15.58,-86.98,0.28,0.15,0.93
11:22:49:10:421684,11.05,15.57,-86.97,0.24,0.18,0.96
11:22:49:10:421779,11.03,15.6,-86.98,0.26,0.16,0.92
11:22:49:10:421890,11.03,15.58,-86.97,0.27,0.2,0.93
11:22:49:10:421972,11.01,15.59,-86.96,0.27,0.17,0.93
11:22:49:11:422083,11.03,15.57,-86.95,0.26,0.16,0.94
11:22:49:12:423392,11.03,15.59,-86.93,0.26,0.16,0.94
11:22:49:12:423466,11.03,15.61,-86.93,0.24,0.17,0.93
11:22:49:12:423594,11.04,15.6,-86.95,0.3,0.18,0.91
11:22:49:12:423676,11.0,15.6,-86.95,0.26,0.19,0.94
11:22:49:12:423771,11.03,15.58,-86.94,0.28,0.15,0.93
11:22:49:12:423883,11.03,15.61,-86.94,0.24,0.19,0.93
11:22:49:12:423978,11.03,15.62,-86.94,0.3,0.17,0.91
11:22:49:13:424090,11.03,15.6,-86.93,0.26,0.21,0.94
11:22:49:14:425385,11.01,15.59,-86.9,0.27,0.2,0.94
11:22:49:14:425480,11.02,15.6,-86.91,0.29,0.16,0.93
11:22:49:14:425577,11.03,15.58,-86.89,0.24,0.19,0.96
11:22:49:14:425671,11.02,15.61,-86.89,0.27,0.16,0.91
11:22:49:14:425767,11.02,15.58,-86.89,0.27,0.2,0.94
11:22:49:14:425909,11.01,15.59,-86.9,0.28,0.17,0.93
11:22:49:14:425974,11.02,15.59,-86.89,0.25,0.17,0.94
11:22:49:15:426086,11.02,15.62,-86.9,0.25,0.17,0.93
11:22:49:16:427410,11.03,15.63,-86.88,0.25,0.17,0.92
11:22:49:16:427490,11.04,15.61,-86.88,0.28,0.19,0.92
11:22:49:16:427588,11.0,15.61,-86.88,0.27,0.17,0.94
11:22:49:16:427682,11.03,15.6,-86.86,0.26,0.16,0.94
11:22:49:16:427777,11.03,15.63,-86.86,0.24,0.17,0.93
11:22:49:16:427874,11.03,15.61,-86.87,0.29,0.18,0.92
11:22:49:16:427985,11.0,15.61,-86.88,0.26,0.19,0.94
11:22:49:17:428081,11.03,15.6,-86.87,0.28,0.15,0.93
11:22:49:18:429380,11.02,15.61,-86.87,0.26,0.16,0.94
11:22:49:18:429476,11.04,15.62,-86.84,0.24,0.18,0.94
11:22:49:18:429574,11.04,15.62,-86.84,0.29,0.18,0.91
11:22:49:18:429668,11.02,15.62,-86.84,0.26,0.19,0.94
11:22:49:18:429764,10.92,15.7,-86.87,0.34,0.12,0.93
11:22:49:18:429860,10.32,16.2,-87.05,0.3,0.12,0.93
11:22:49:18:429987,9.69,16.71,-87.21,0.33,0.12,0.92
11:22:49:19:430082,9.13,17.12,-87.34,0.33,0.13,0.92
11:22:49:20:431373,6.37,19.47,-87.69,0.3,0.09,0.91
11:22:49:20:431469,6.56,19.25,-87.61,0.35,0.13,0.94
11:22:49:20:431579,6.9,19.04,-87.51,0.35,0.16,0.92
11:22:49:20:431677,7.25,18.97,-87.41,0.32,0.15,0.93
11:22:49:20:431771,7.54,18.74,-87.31,0.3,0.15,0.94
11:22:49:20:431898,7.81,18.48,-87.28,0.31,0.17,0.95
11:22:49:20:431963,8.16,18.25,-87.23,0.31,0.17,0.92
11:22:49:21:432075,8.43,17.93,-87.21,0.29,0.17,0.94
11:22:49:22:433383,7.91,18.6,-87.34,0.32,0.1,0.96
11:22:49:22:433473,7.76,18.69,-87.17,0.33,0.09,0.95
11:22:49:22:433586,7.46,19.03,-87.0,0.33,0.06,0.88
11:22:49:22:433681,7.18,19.45,-86.76,0.37,0.13,0.91
11:22:49:22:433778,6.9,19.57,-86.45,0.34,0.1,0.91
11:22:49:22:433885,6.58,19.36,-86.16,0.36,0.05,0.93
11:22:49:22:433969,6.3,19.27,-85.83,0.3,0.09,1.02
11:22:49:23:434096,6.23,19.61,-85.43,0.32,0.12,0.95
11:22:49:24:435388,6.7,19.47,-84.21,0.37,0.14,1.01
11:22:49:24:435466,6.9,19.81,-84.29,0.36,0.09,0.87
11:22:49:24:435578,6.8,20.3,-84.39,0.32,0.18,0.96
11:22:49:24:435690,6.69,20.16,-84.4,0.34,0.05,0.97
11:22:49:24:435770,6.31,20.29,-84.51,0.38,0.03,0.86
11:22:49:24:435883,6.07,20.2,-84.59,0.36,0.02,0.96
11:22:49:24:435979,6.16,20.21,-84.53,0.39,0.07,0.99
11:22:49:25:436074,6.33,20.38,-84.46,0.33,0.11,0.87
11:22:49:26:437464,8.38,18.97,-82.74,0.35,0.14,0.91
11:22:49:26:437561,8.88,18.93,-82.65,0.27,0.24,1.01
11:22:49:26:437687,9.4,18.82,-82.64,0.24,0.33,1.01
11:22:49:26:437767,9.3,18.82,-82.8,0.28,0.2,0.84
11:22:49:26:437863,9.15,18.92,-83.01,0.26,0.11,0.88
11:22:49:26:437990,9.26,19.08,-82.98,0.31,0.18,0.86
11:22:49:27:438070,9.02,19.19,-83.08,0.33,0.1,0.99
11:22:49:28:439475,7.1,19.89,-82.09,0.29,0.08,1.01
11:22:49:28:439569,7.62,19.51,-81.97,0.3,0.19,1.08
11:22:49:28:439666,7.96,19.24,-82.02,0.26,0.12,0.86
11:22:49:28:439778,8.21,19.61,-82.17,0.17,0.0,0.98
11:22:49:28:439874,8.29,19.59,-82.37,0.47,0.29,0.98
11:22:49:28:439970,8.68,19.43,-82.39,0.21,0.06,0.76
11:22:49:29:440082,9.01,19.47,-82.39,0.29,0.05,1.0
11:22:49:30:441476,9.33,19.43,-82.71,0.38,0.14,0.93
11:22:49:30:441572,9.24,19.35,-82.73,0.27,0.2,1.04
11:22:49:30:441669,9.35,19.3,-82.72,0.42,0.17,0.86
11:22:49:30:441763,9.33,19.19,-82.7,0.28,0.15,0.94
11:22:49:30:441861,9.46,18.95,-82.68,0.35,0.16,0.93
11:22:49:30:441987,9.65,18.85,-82.62,0.29,0.15,0.93
11:22:49:31:442083,9.96,18.83,-82.52,0.27,0.13,0.85
11:22:49:32:443392,10.78,19.18,-82.42,0.35,0.14,0.95
11:22:49:32:443470,10.58,19.44,-82.49,0.32,0.11,0.81
11:22:49:32:443565,10.34,19.65,-82.58,0.38,0.14,0.99
11:22:49:32:443679,10.12,19.99,-82.66,0.38,0.18,0.92
11:22:49:32:443772,9.74,20.08,-82.8,0.37,0.11,0.91
11:22:49:32:443870,9.53,20.14,-82.89,0.31,0.09,0.91
11:22:49:32:443967,9.41,20.21,-82.94,0.45,0.12,0.94
11:22:49:33:444094,9.35,20.25,-82.97,0.3,0.23,1.0
11:22:49:34:445485,11.12,18.26,-82.37,0.26,0.18,0.92
11:22:49:34:445566,11.14,18.26,-82.36,0.32,0.21,0.98
11:22:49:34:445679,11.14,18.28,-82.33,0.3,0.2,0.9
11:22:49:34:445774,11.35,18.18,-82.23,0.27,0.18,0.9
11:22:49:34:445869,11.45,17.93,-82.14,0.28,0.2,0.97
11:22:49:34:445967,11.67,18.03,-82.01,0.28,0.22,0.98
11:22:49:35:446076,11.79,18.14,-81.91,0.34,0.23,0.93
11:22:49:36:447482,12.25,18.69,-81.27,0.33,0.32,1.0
11:22:49:36:447577,12.26,19.06,-81.17,0.25,0.26,1.13
11:22:49:36:447673,11.54,19.96,-81.31,0.5,0.17,0.93
11:22:49:36:447786,10.16,20.84,-81.68,0.35,0.04,0.97
11:22:49:36:447866,10.27,20.84,-81.59,0.38,0.15,0.92
11:22:49:36:447961,10.35,20.46,-81.52,0.3,0.14,0.93
11:22:49:37:448059,9.82,20.3,-81.69,0.41,0.11,0.9
11:22:49:38:449470,10.02,17.07,-80.69,0.31,0.16,0.89
11:22:49:38:449565,10.05,16.93,-80.61,0.2,0.17,0.96
11:22:49:38:449662,10.05,16.84,-80.54,0.33,0.18,0.99
11:22:49:38:449773,10.08,16.75,-80.47,0.26,0.18,0.88
11:22:49:38:449871,10.28,16.85,-80.34,0.32,0.22,0.99
11:22:49:38:449980,10.15,16.76,-80.34,0.27,0.24,1.04
11:22:49:39:450077,10.0,16.84,-80.32,0.33,0.15,0.93
11:22:49:40:451472,10.55,16.45,-78.84,0.3,0.12,0.95
11:22:49:40:451569,10.26,16.6,-78.8,0.28,0.13,0.98
11:22:49:40:451695,10.1,16.82,-78.73,0.3,0.19,0.94
11:22:49:40:451774,10.08,16.83,-78.64,0.31,0.14,0.87
11:22:49:40:451871,10.0,16.72,-78.59,0.23,0.21,0.98
11:22:49:40:451968,9.99,16.68,-78.54,0.29,0.17,0.92
11:22:49:41:452065,9.64,16.63,-78.64,0.28,0.16,0.92
11:22:49:42:453392,10.56,15.91,-78.76,0.2,0.14,0.98
11:22:49:42:453468,10.38,15.9,-78.77,0.27,0.17,1.02
11:22:49:42:453562,10.2,16.03,-78.8,0.26,0.16,0.94
11:22:49:42:453660,9.99,16.14,-78.84,0.29,0.07,0.92
11:22:49:42:453786,10.02,16.3,-78.8,0.32,0.12,0.93
11:22:49:42:453883,10.02,16.34,-78.76,0.25,0.12,0.98
11:22:49:42:453977,9.93,16.45,-78.74,0.34,0.23,0.99
11:22:49:43:454059,9.6,16.54,-78.77,0.23,0.13,1.0
11:22:49:44:455380,8.32,17.24,-78.19,0.31,0.18,0.95
11:22:49:44:455475,8.46,17.31,-78.18,0.32,0.15,0.88
11:22:49:44:455568,8.56,17.25,-78.11,0.3,0.17,0.99
11:22:49:44:455665,8.76,17.33,-78.01,0.29,0.13,0.93
11:22:49:44:455792,8.7,17.3,-78.0,0.24,0.18,0.99
11:22:49:44:455874,8.86,17.36,-77.89,0.26,0.14,0.92
11:22:49:44:455969,9.11,17.31,-77.78,0.26,0.13,0.92
11:22:49:45:456064,9.65,17.14,-77.61,0.24,0.2,0.88
11:22:49:46:457473,10.77,16.63,-77.58,0.29,0.17,0.91
11:22:49:46:457587,11.24,16.35,-77.44,0.19,0.19,0.95
11:22:49:46:457667,11.29,16.1,-77.45,0.25,0.19,1.02
11:22:49:46:457779,11.14,16.29,-77.52,0.27,0.2,0.98
11:22:49:46:457873,11.01,16.61,-77.62,0.3,0.15,0.9
11:22:49:46:457970,11.12,16.74,-77.61,0.29,0.17,0.87
11:22:49:47:458067,11.48,16.74,-77.59,0.28,0.23,0.9
11:22:49:48:459379,13.13,17.98,-78.12,0.3,0.21,0.92
11:22:49:48:459486,13.29,18.18,-78.11,0.32,0.25,0.92
11:22:49:48:459581,13.18,18.23,-78.26,0.35,0.15,0.91
11:22:49:48:459678,12.99,18.31,-78.47,0.31,0.17,0.91
11:22:49:48:459773,12.56,18.33,-78.75,0.24,0.18,0.92
11:22:49:48:459870,12.1,18.36,-79.04,0.33,0.13,0.94
11:22:49:48:459965,11.62,18.48,-79.3,0.33,0.15,0.91
11:22:49:49:460061,11.39,18.65,-79.49,0.26,0.16,0.89
11:22:49:50:461475,11.61,17.56,-79.54,0.36,0.27,0.98
11:22:49:50:461587,11.52,17.51,-79.5,0.31,0.16,0.92
11:22:49:50:461668,11.47,17.43,-79.47,0.23,0.19,1.0
11:22:49:50:461762,11.5,17.84,-79.39,0.39,0.19,0.87
11:22:49:50:461875,11.67,17.97,-79.26,0.35,0.19,0.83
11:22:49:50:461986,12.06,17.96,-79.1,0.41,0.28,0.95
11:22:49:51:462066,12.13,18.09,-79.04,0.13,0.1,0.97
11:22:49:52:463475,11.2,17.63,-79.53,0.27,0.16,0.91
11:22:49:52:463589,11.04,17.62,-79.59,0.28,0.16,0.92
11:22:49:52:463667,11.14,17.7,-79.58,0.34,0.21,0.94
11:22:49:52:463780,11.29,17.76,-79.55,0.34,0.25,1.01
11:22:49:52:463875,11.14,17.84,-79.61,0.36,0.25,1.04
11:22:49:52:463972,10.67,18.12,-79.76,0.3,0.15,0.95
11:22:49:53:464068,10.39,18.2,-79.86,0.28,0.06,0.8
11:22:49:54:465462,10.7,17.96,-79.94,0.28,0.17,0.89
11:22:49:54:465572,11.09,17.49,-79.82,0.32,0.2,0.94
11:22:49:54:465673,11.23,17.3,-79.76,0.31,0.18,0.97
11:22:49:54:465765,11.26,17.36,-79.74,0.24,0.12,0.9
11:22:49:54:465860,11.34,17.23,-79.71,0.28,0.17,0.86
11:22:49:54:465972,11.44,16.81,-79.67,0.22,0.18,0.97
11:22:49:55:466084,11.83,16.71,-79.55,0.31,0.28,1.02
11:22:49:56:467477,12.68,15.58,-79.18,0.23,0.14,0.95
11:22:49:56:467574,12.77,15.16,-79.11,0.27,0.26,0.85
11:22:49:56:467672,13.1,15.26,-78.94,0.2,0.21,1.18
11:22:49:56:467767,13.35,15.65,-78.82,0.34,0.24,1.0
11:22:49:56:467878,13.03,15.74,-78.82,0.3,0.22,0.97
11:22:49:56:467958,12.83,15.84,-78.77,0.27,0.21,0.95
11:22:49:57:468071,12.86,15.82,-78.67,0.26,0.22,0.93
11:22:49:58:469471,13.58,15.84,-78.52,0.1,0.11,0.96
11:22:49:58:469582,13.92,15.88,-78.45,0.39,0.25,0.88
11:22:49:58:469678,14.19,15.94,-78.39,0.22,0.13,1.06
11:22:49:58:469774,13.94,16.66,-78.5,0.34,0.3,0.87
11:22:49:58:469868,13.07,16.58,-78.73,0.28,0.1,0.97
11:22:49:58:469964,12.96,16.53,-78.78,0.23,0.2,0.97
11:22:49:59:470061,12.37,16.08,-78.95,0.23,0.12,0.96
11:22:50:0:471472,11.8,18.72,-79.43,0.24,0.24,0.81
11:22:50:0:471569,12.18,18.31,-79.36,0.23,0.26,0.94
11:22:50:0:471665,12.64,17.98,-79.27,0.35,0.25,1.13
11:22:50:0:471775,12.97,18.01,-79.17,0.25,0.37,1.14
11:22:50:0:471872,12.38,17.96,-79.32,0.21,0.2,1.03
11:22:50:0:471983,11.39,17.94,-79.62,0.24,0.12,0.8
11:22:50:1:472080,11.39,17.91,-79.65,0.21,0.24,0.89
11:22:50:2:473483,14.35,16.6,-79.25,0.24,0.2,0.76
11:22:50:2:473577,14.1,16.98,-79.35,0.33,0.21,0.89
11:22:50:2:473689,14.07,17.05,-79.36,0.3,0.24,0.86
11:22:50:2:473771,14.28,16.85,-79.3,0.27,0.22,0.9
11:22:50:2:473866,14.48,16.58,-79.26,0.28,0.34,1.01
11:22:50:2:473961,14.61,16.44,-79.23,0.27,0.22,0.88
11:22:50:3:474073,14.68,16.32,-79.24,0.25,0.25,0.89
11:22:50:4:475461,13.84,15.75,-79.81,0.22,0.16,0.85
11:22:50:4:475556,13.69,15.29,-79.89,0.18,0.14,1.09
11:22:50:4:475684,13.61,15.61,-80.02,0.28,0.14,1.06
11:22:50:4:475780,13.06,16.26,-80.26,0.28,0.12,0.87
11:22:50:4:475877,12.34,16.98,-80.56,0.35,0.14,0.91
11:22:50:4:475957,11.83,17.2,-80.8,0.29,0.14,0.87
11:22:50:5:476086,11.37,17.32,-81.0,0.34,0.12,0.88
11:22:50:6:477461,8.87,18.0,-80.55,0.27,0.14,0.93
11:22:50:6:477559,8.66,18.1,-80.69,0.31,0.16,0.95
11:22:50:6:477672,8.58,18.18,-80.77,0.29,0.13,0.9
11:22:50:6:477766,8.57,18.29,-80.84,0.37,0.14,0.91
11:22:50:6:477880,8.42,18.24,-80.95,0.34,0.11,0.92
11:22:50:6:477975,8.29,18.41,-81.08,0.38,0.11,0.91
11:22:50:7:478071,8.22,18.53,-81.19,0.34,0.08,0.89
11:22:50:8:479472,9.53,17.75,-82.14,0.3,0.11,0.89
11:22:50:8:479569,9.72,17.47,-82.22,0.31,0.16,0.97
11:22:50:8:479665,9.89,17.59,-82.26,0.3,0.18,0.9
11:22:50:8:479761,9.89,17.67,-82.31,0.34,0.17,0.99
11:22:50:8:479857,9.99,17.83,-82.25,0.35,0.24,0.94
11:22:50:8:479969,9.7,17.81,-82.23,0.33,0.18,0.96
11:22:50:9:480082,9.54,18.19,-82.15,0.32,0.14,0.88
11:22:50:10:481465,11.03,17.04,-79.87,0.27,0.22,0.96
11:22:50:10:481593,11.01,17.01,-79.89,0.28,0.19,0.93
11:22:50:10:481672,10.97,16.95,-79.96,0.26,0.14,0.94
11:22:50:10:481770,11.05,16.9,-80.01,0.31,0.15,0.92
11:22:50:10:481865,11.45,16.56,-79.97,0.22,0.2,0.92
11:22:50:10:481979,11.96,16.31,-79.91,0.23,0.14,0.84
11:22:50:11:482089,12.24,16.36,-79.95,0.24,0.3,1.01
11:22:50:12:483464,12.06,18.31,-81.39,0.37,0.11,0.89
11:22:50:12:483560,11.64,18.46,-81.37,0.36,0.13,1.0
11:22:50:12:483670,11.35,18.37,-81.26,0.3,0.1,0.9
11:22:50:12:483785,11.09,18.25,-81.23,0.33,0.17,0.92
11:22:50:12:483880,11.0,18.13,-81.17,0.26,0.17,0.95
11:22:50:12:483977,11.04,17.84,-81.06,0.28,0.17,0.92
11:22:50:13:484073,11.21,17.39,-80.86,0.25,0.19,0.92
11:22:50:14:485496,17.25,12.82,-79.81,0.19,0.44,1.02
11:22:50:14:485577,17.52,12.11,-79.82,0.01,0.33,0.92
11:22:50:14:485675,18.0,11.42,-79.74,0.13,0.28,0.85
11:22:50:14:485785,18.5,11.06,-79.6,0.1,0.37,0.88
11:22:50:14:485865,19.17,10.18,-79.38,0.09,0.37,0.96
11:22:50:14:485960,19.62,9.73,-79.11,0.21,0.44,0.92
11:22:50:15:486087,19.86,9.36,-78.78,0.13,0.35,0.91
11:22:50:16:487468,17.08,12.56,-79.31,0.21,0.27,0.96
11:22:50:16:487566,16.57,12.85,-79.38,0.3,0.22,0.96
11:22:50:16:487676,16.2,13.04,-79.39,0.22,0.17,0.91
11:22:50:16:487772,15.84,13.15,-79.41,0.23,0.2,0.91
11:22:50:16:487884,15.58,13.37,-79.4,0.24,0.23,0.93
11:22:50:16:487979,15.38,13.57,-79.35,0.21,0.2,0.93
11:22:50:17:488075,15.12,13.61,-79.33,0.24,0.19,0.89
11:22:50:18:489472,13.02,16.25,-78.52,0.27,0.19,0.9
11:22:50:18:489583,13.0,16.36,-78.44,0.24,0.2,0.97
11:22:50:18:489679,12.98,16.45,-78.37,0.3,0.2,0.95
11:22:50:18:489776,12.81,16.56,-78.39,0.24,0.15,0.89
11:22:50:18:489871,12.66,16.81,-78.36,0.29,0.19,0.94
11:22:50:18:489984,12.56,16.99,-78.36,0.3,0.18,0.85
11:22:50:19:490079,12.6,17.18,-78.31,0.3,0.23,0.94
11:22:50:20:491483,9.79,20.29,-78.9,0.34,0.13,0.81
11:22:50:20:491581,9.92,20.13,-78.77,0.34,-0.02,0.64
11:22:50:20:491689,10.36,19.77,-78.67,0.59,0.15,0.83
11:22:50:20:491771,10.47,19.55,-78.72,0.4,0.26,1.04
11:22:50:20:491866,10.06,19.68,-78.93,0.23,0.33,1.01
11:22:50:20:491963,9.46,20.39,-79.16,0.45,0.02,0.73
11:22:50:21:492073,9.06,21.35,-79.28,0.44,-0.04,0.88
11:22:50:22:493384,8.93,19.83,-78.92,0.33,0.15,0.91
11:22:50:22:493476,9.17,19.79,-78.86,0.29,0.16,0.91
11:22:50:22:493575,9.35,19.79,-78.84,0.32,0.17,0.97
11:22:50:22:493669,9.63,19.73,-78.78,0.29,0.14,0.91
11:22:50:22:493782,9.96,19.53,-78.74,0.34,0.16,0.91
11:22:50:22:493861,10.5,19.24,-78.63,0.26,0.21,0.89
11:22:50:22:493988,10.82,18.92,-78.6,0.31,0.13,0.96
11:22:50:23:494085,11.03,18.7,-78.59,0.29,0.16,0.89
11:22:50:24:495464,12.97,16.75,-79.46,0.33,0.16,0.89
11:22:50:24:495577,12.95,16.78,-79.58,0.25,0.21,0.95
11:22:50:24:495689,13.02,16.71,-79.67,0.29,0.25,0.91
11:22:50:24:495786,12.9,16.62,-79.78,0.28,0.18,1.01
11:22:50:24:495881,12.65,16.48,-79.89,0.3,0.22,0.85
11:22:50:24:495977,12.77,16.6,-79.88,0.32,0.2,0.97
11:22:50:25:496089,12.6,16.5,-79.95,0.27,0.18,0.91
11:22:50:26:497489,10.65,18.3,-80.4,0.31,0.15,0.91
11:22:50:26:497584,10.53,18.48,-80.47,0.34,0.12,0.91
11:22:50:26:497665,10.62,18.47,-80.48,0.3,0.18,0.94
11:22:50:26:497761,10.64,18.32,-80.49,0.29,0.09,0.92
11:22:50:26:497874,10.8,18.14,-80.48,0.32,0.17,0.9
11:22:50:26:497985,10.77,18.29,-80.5,0.32,0.23,0.92
11:22:50:27:498081,10.59,18.54,-80.56,0.34,0.12,0.88
11:22:50:28:499477,10.63,18.9,-79.34,0.28,0.19,0.91
11:22:50:28:499607,10.55,19.01,-79.36,0.44,0.18,0.94
11:22:50:28:499685,10.8,19.01,-79.26,0.35,0.29,1.0
11:22:50:28:499782,10.68,18.68,-79.3,0.22,0.09,0.95
11:22:50:28:499879,10.76,18.77,-79.31,0.37,0.2,0.83
11:22:50:28:499990,10.86,18.61,-79.25,0.28,0.16,0.84
11:22:50:29:500071,11.22,18.39,-79.15,0.29,0.18,0.86
11:22:50:30:501468,12.74,17.92,-78.47,0.35,0.2,0.89
11:22:50:30:501578,12.76,17.77,-78.44,0.3,0.21,0.92
11:22:50:30:501691,13.03,17.8,-78.29,0.31,0.26,0.95
11:22:50:30:501802,12.96,17.59,-78.22,0.27,0.21,0.88
11:22:50:30:501881,13.07,17.68,-78.14,0.29,0.22,0.9
11:22:50:30:501962,13.16,17.64,-78.07,0.22,0.21,0.89
11:22:50:31:502075,13.14,17.66,-78.07,0.3,0.18,0.88
11:22:50:32:503475,12.17,18.44,-78.26,0.31,0.27,1.02
11:22:50:32:503590,12.03,18.57,-78.4,0.27,0.24,1.03
11:22:50:32:503714,11.65,18.8,-78.63,0.3,0.19,0.94
11:22:50:32:503796,11.49,18.97,-78.8,0.3,0.12,0.91
11:22:50:32:503877,11.77,18.91,-78.85,0.26,0.16,0.84
11:22:50:32:503987,12.12,18.65,-78.9,0.26,0.16,0.91
11:22:50:33:504099,12.77,18.17,-78.89,0.32,0.22,0.87
11:22:50:34:505473,13.0,16.37,-79.48,0.34,0.17,0.9
11:22:50:34:505584,12.99,16.27,-79.52,0.31,0.22,0.92
11:22:50:34:505681,13.04,16.2,-79.52,0.25,0.2,0.97
11:22:50:34:505777,12.94,16.29,-79.54,0.29,0.18,0.88
11:22:50:34:505889,12.81,16.24,-79.54,0.35,0.18,0.91
11:22:50:34:505969,12.84,16.18,-79.49,0.3,0.19,0.89
11:22:50:35:506080,12.94,15.91,-79.42,0.25,0.23,0.95
11:22:50:36:507489,13.53,15.32,-79.04,0.28,0.21,0.93
11:22:50:36:507585,13.55,15.3,-79.06,0.27,0.21,0.89
11:22:50:36:507682,13.58,15.23,-79.06,0.25,0.21,0.96
11:22:50:36:507778,13.53,15.21,-79.08,0.24,0.26,0.93
11:22:50:36:507889,13.53,15.32,-79.09,0.31,0.2,0.91
11:22:50:36:507986,13.56,15.52,-79.1,0.25,0.2,0.9
11:22:50:37:508082,13.7,15.55,-79.09,0.28,0.24,0.92
11:22:50:38:509493,14.23,16.21,-79.24,0.33,0.2,0.89
11:22:50:38:509573,14.22,16.32,-79.25,0.26,0.25,0.92
11:22:50:38:509671,14.1,16.41,-79.3,0.31,0.22,0.93
11:22:50:38:509784,13.91,16.46,-79.36,0.27,0.25,0.93
11:22:50:38:509878,13.87,16.47,-79.38,0.31,0.18,0.89
11:22:50:38:509989,13.83,16.48,-79.39,0.29,0.23,0.92
11:22:50:39:510070,13.82,16.42,-79.41,0.27,0.27,0.96
11:22:50:40:511377,13.85,15.89,-78.86,0.29,0.22,0.91
11:22:50:40:511514,14.15,15.92,-78.75,0.24,0.2,0.88
11:22:50:40:511578,14.36,15.84,-78.66,0.28,0.24,0.96
11:22:50:40:511677,14.53,16.02,-78.59,0.29,0.27,0.99
11:22:50:40:511771,14.48,16.16,-78.55,0.26,0.21,0.91
11:22:50:40:511883,14.21,16.26,-78.61,0.3,0.18,0.93
11:22:50:40:511964,14.18,16.3,-78.59,0.28,0.2,0.91
11:22:50:41:512076,14.28,16.18,-78.53,0.29,0.2,0.93
11:22:50:42:513477,13.15,17.01,-79.34,0.27,0.21,0.93
11:22:50:42:513589,12.97,17.28,-79.37,0.33,0.21,0.91
11:22:50:42:513685,12.8,17.4,-79.39,0.33,0.23,0.92
11:22:50:42:513814,12.88,17.37,-79.32,0.26,0.22,0.93
11:22:50:42:513877,13.05,17.05,-79.25,0.28,0.2,0.88
11:22:50:42:513987,13.24,16.75,-79.2,0.29,0.23,0.95
11:22:50:43:514068,13.26,16.53,-79.18,0.27,0.21,0.97
11:22:50:44:515473,15.49,14.35,-78.74,0.23,0.26,0.93
11:22:50:44:515569,15.65,14.17,-78.79,0.23,0.27,0.92
11:22:50:44:515680,15.79,14.06,-78.76,0.22,0.28,0.95
11:22:50:44:515791,15.88,13.86,-78.76,0.24,0.28,0.94
11:22:50:44:515872,15.86,13.78,-78.89,0.2,0.8,0.82
11:22:50:44:515983,16.49,7.66,-78.06,0.05,0.4,0.93
11:22:50:45:516096,16.0,6.56,-80.23,0.17,0.39,0.98
11:22:50:46:517480,-17.19,9.18,-79.57,0.14,-0.28,0.94
11:22:50:46:517579,-16.57,9.33,-79.49,0.14,-0.26,0.95
11:22:50:46:517674,-15.82,9.06,-79.82,0.13,-0.27,0.94
11:22:50:46:517769,-15.22,8.31,-80.02,0.13,-0.22,1.0
11:22:50:46:517882,-14.46,8.78,-80.51,0.17,-0.23,0.95
11:22:50:46:517978,-13.14,9.44,-81.34,0.19,-0.19,0.98
11:22:50:47:518074,-14.24,9.08,-81.17,0.17,-0.21,0.99
11:22:50:48:519481,-18.92,0.47,-82.58,-0.0,-0.34,0.91
11:22:50:48:519578,-18.69,0.06,-82.54,-0.07,-0.32,0.97
11:22:50:48:519673,-18.94,0.34,-82.32,-0.0,-0.35,0.91
11:22:50:48:519771,-18.86,-0.05,-82.23,-0.06,-0.35,0.91
11:22:50:48:519882,-18.22,0.74,-82.11,0.02,-0.32,0.92
11:22:50:48:519977,-17.78,1.18,-81.84,0.0,-0.34,0.96
11:22:50:49:520073,-18.01,1.64,-81.66,-0.02,-0.35,0.96
11:22:50:50:521474,-17.45,2.24,-78.62,0.02,-0.31,0.91
11:22:50:50:521570,-17.3,2.21,-78.35,0.02,-0.29,0.94
11:22:50:50:521665,-17.44,2.21,-78.28,-0.0,-0.31,0.93
11:22:50:50:521760,-17.46,2.09,-78.11,0.03,-0.31,0.9
11:22:50:50:521873,-17.19,1.81,-77.83,0.0,-0.29,0.97
11:22:50:50:521969,-17.32,2.11,-77.51,0.03,-0.3,0.93
11:22:50:51:522081,-17.26,2.41,-77.22,0.01,-0.3,0.95
11:22:50:52:523476,-20.23,7.06,-75.97,0.11,-0.33,0.93
11:22:50:52:523571,-20.63,7.24,-75.87,0.13,-0.4,0.88
11:22:50:52:523682,-20.68,7.16,-75.74,0.13,-0.35,0.92
11:22:50:52:523779,-20.85,7.28,-75.93,0.12,-0.4,0.9
11:22:50:52:523874,-21.19,7.31,-76.0,0.16,-0.4,0.87
11:22:50:52:523971,-21.26,7.38,-75.89,0.11,-0.39,0.93
11:22:50:53:524066,-21.26,7.38,-75.68,0.12,-0.38,0.91
11:22:50:54:525498,-21.76,6.8,-74.94,0.14,-0.35,0.96
11:22:50:54:525567,-21.98,6.85,-75.08,0.09,-0.38,0.91
11:22:50:54:525678,-22.71,6.83,-75.25,0.15,-0.36,0.89
11:22:50:54:525772,-22.63,6.96,-75.45,0.12,-0.41,0.92
11:22:50:54:525869,-22.81,7.07,-75.53,0.12,-0.35,0.91
11:22:50:54:525964,-22.77,6.91,-75.77,0.1,-0.36,0.89
11:22:50:55:526075,-23.08,6.8,-76.0,0.13,-0.4,0.88
11:22:50:56:527475,-19.02,11.13,-73.52,0.22,-0.37,0.89
11:22:50:56:527573,-19.97,10.62,-74.0,0.2,-0.37,0.91
11:22:50:56:527668,-19.95,10.47,-74.13,0.21,-0.36,0.9
11:22:50:56:527780,-20.23,9.98,-74.31,0.15,-0.38,0.86
11:22:50:56:527878,-19.56,9.15,-74.09,0.14,-0.33,0.89
11:22:50:56:527972,-17.97,9.11,-73.83,0.16,-0.31,0.97
11:22:50:57:528068,-16.86,8.89,-73.92,0.19,-0.25,0.9
11:22:50:58:529459,-13.02,2.87,-77.51,0.11,-0.18,0.96
11:22:50:58:529587,-12.82,2.51,-77.82,0.07,-0.23,0.95
11:22:50:58:529667,-12.48,2.23,-78.04,0.02,-0.23,1.03
11:22:50:58:529763,-12.14,2.94,-77.85,0.12,-0.17,0.99
11:22:50:58:529875,-12.08,2.96,-77.9,0.06,-0.23,1.02
11:22:50:58:529973,-12.97,2.84,-77.55,0.05,-0.23,0.96
11:22:50:59:530084,-12.66,3.03,-77.77,0.09,-0.25,0.99
11:22:51:0:531495,-8.08,0.25,-78.54,-0.12,-0.15,1.2
11:22:51:0:531575,-9.26,1.02,-77.6,-0.12,-0.19,1.19
11:22:51:0:531670,-9.74,1.94,-77.2,-0.0,-0.08,1.09
11:22:51:0:531765,-12.16,2.7,-76.06,0.11,-0.31,0.98
11:22:51:0:531861,-13.48,3.16,-74.78,0.11,-0.24,0.9
11:22:51:0:531975,-12.53,1.43,-75.3,-0.05,-0.17,0.91
11:22:51:1:532071,-10.94,0.32,-76.44,0.01,-0.13,0.95
11:22:51:2:533482,-9.87,0.28,-78.53,0.03,-0.15,0.95
11:22:51:2:533565,-9.68,0.31,-78.7,0.04,-0.21,0.98
11:22:51:2:533674,-9.73,0.31,-78.8,-0.03,-0.19,1.06
11:22:51:2:533769,-10.11,0.98,-78.63,0.07,-0.17,0.91
11:22:51:2:533882,-10.23,0.72,-78.53,0.04,-0.15,0.96
11:22:51:2:533978,-10.52,0.67,-78.45,0.05,-0.2,0.93
11:22:51:3:534075,-10.69,-0.32,-78.63,-0.07,-0.18,1.01
11:22:51:4:535472,-20.45,2.53,-83.34,0.01,-0.36,0.95
11:22:51:4:535569,-20.15,2.71,-82.98,0.09,-0.33,0.89
11:22:51:4:535663,-20.45,1.53,-82.47,-0.09,-0.39,0.99
11:22:51:4:535773,-20.3,2.08,-81.78,0.11,-0.34,0.88
11:22:51:4:535888,-18.98,1.2,-82.05,-0.01,-0.28,0.93
11:22:51:4:535983,-18.67,1.58,-81.97,0.02,-0.31,0.94
11:22:51:5:536078,-18.48,1.92,-81.72,0.09,-0.3,0.9
11:22:51:6:537480,-1.38,39.05,-134.71,0.5,-0.03,0.86
11:22:51:6:537575,-6.55,50.71,-141.58,0.83,-0.1,0.55
11:22:51:6:537673,-17.51,53.98,-149.1,0.82,-0.01,0.5
11:22:51:6:537800,-36.42,52.82,-162.47,0.93,-0.65,0.85
11:22:51:6:537864,-33.28,51.24,-158.26,0.76,-0.31,0.63
11:22:51:6:537978,-33.7,53.09,-161.83,0.82,-0.39,0.53
11:22:51:7:538072,-27.29,47.9,-156.5,0.62,-0.08,0.67
11:22:51:8:539490,-64.4,19.65,165.83,0.36,-0.78,0.62
11:22:51:8:539571,-61.36,19.83,167.17,0.33,-0.71,0.7
11:22:51:8:539665,-61.94,18.72,168.42,0.31,-0.75,0.67
11:22:51:8:539777,-61.36,16.66,170.29,0.28,-0.78,0.71
11:22:51:8:539889,-59.93,12.08,171.06,0.11,-0.72,0.71
11:22:51:8:540002,-57.18,7.88,172.32,0.03,-0.61,0.75
11:22:51:9:540082,-55.83,8.66,176.17,-0.0,-0.47,0.73
11:22:51:10:541478,-30.58,24.5,-143.9,0.35,-0.37,0.85
11:22:51:10:541574,-30.32,24.15,-142.66,0.35,-0.39,0.83
11:22:51:10:541687,-29.62,23.95,-140.91,0.34,-0.4,0.83
11:22:51:10:541784,-27.88,23.44,-138.54,0.3,-0.36,0.84
11:22:51:10:541880,-26.78,23.23,-136.85,0.31,-0.35,0.86
11:22:51:10:541975,-25.79,23.1,-135.49,0.32,-0.34,0.86
11:22:51:11:542071,-26.1,22.6,-134.91,0.31,-0.39,0.86
11:22:51:12:543473,-32.58,20.13,-139.95,0.36,-0.52,0.77
11:22:51:12:543571,-31.31,18.93,-138.2,0.14,-0.5,0.8
11:22:51:12:543681,-27.86,20.48,-133.84,0.28,-0.37,0.82
11:22:51:12:543779,-23.33,21.86,-128.99,0.32,-0.26,0.86
11:22:51:12:543889,-21.19,22.29,-126.05,0.28,-0.29,0.87
11:22:51:12:543970,-20.51,21.8,-124.37,0.3,-0.31,0.88
11:22:51:13:544066,-19.78,21.34,-123.2,0.31,-0.32,0.86
11:22:51:14:545475,-17.19,20.81,-115.43,0.39,-0.25,0.85
11:22:51:14:545573,-15.8,20.19,-112.14,0.33,-0.22,0.89
11:22:51:14:545667,-14.66,18.95,-110.89,0.28,-0.24,0.86
11:22:51:14:545764,-14.14,17.98,-110.94,0.31,-0.23,0.87
11:22:51:14:545876,-13.89,17.19,-111.03,0.3,-0.22,0.89
11:22:51:14:545972,-13.86,15.95,-110.52,0.26,-0.22,0.9
11:22:51:15:546066,-14.98,15.39,-110.41,0.3,-0.23,0.95
11:22:51:16:547486,-14.94,12.15,-109.59,0.22,-0.27,0.92
11:22:51:16:547568,-13.96,9.77,-100.82,0.14,-0.26,0.92
11:22:51:16:547663,-13.84,7.88,-98.21,0.08,-0.2,0.89
11:22:51:16:547758,-14.0,8.23,-99.42,0.17,-0.26,0.98
11:22:51:16:547869,-14.1,8.5,-100.34,0.15,-0.19,0.95
11:22:51:16:547967,-14.41,8.63,-101.06,0.16,-0.27,0.97
11:22:51:17:548062,-14.52,8.35,-100.97,0.14,-0.26,0.9
11:22:51:18:549468,-25.23,7.92,-128.3,0.06,-0.36,0.84
11:22:51:18:549564,-27.57,10.26,-129.48,0.13,-0.43,0.93
11:22:51:18:549675,-27.21,13.04,-128.26,0.29,-0.41,0.9
11:22:51:18:549771,-30.92,11.95,-130.18,0.18,-0.53,0.85
11:22:51:18:549867,-34.07,8.69,-129.06,0.01,-0.61,0.83
11:22:51:18:549964,-34.26,6.62,-125.44,0.01,-0.57,0.82
11:22:51:19:550076,-31.81,6.06,-124.56,0.08,-0.47,0.79
11:22:51:20:551467,-23.5,2.2,-128.94,-0.04,-0.35,0.87
11:22:51:20:551563,-22.56,1.36,-129.89,-0.01,-0.33,0.92
11:22:51:20:551674,-22.61,1.05,-130.41,-0.07,-0.31,0.93
11:22:51:20:551772,-21.86,0.9,-130.46,-0.03,-0.33,0.92
11:22:51:20:551882,-21.28,1.11,-130.57,-0.01,-0.3,0.91
11:22:51:20:551979,-20.78,1.49,-130.04,-0.02,-0.31,0.93
11:22:51:21:552075,-20.94,2.1,-129.67,0.02,-0.34,0.93
11:22:51:22:553490,-19.52,0.43,-122.79,0.0,-0.36,0.95
11:22:51:22:553570,-19.13,-0.12,-121.97,-0.08,-0.25,0.96
11:22:51:22:553666,-19.46,-0.33,-122.29,0.0,-0.42,0.91
11:22:51:22:553762,-18.57,-0.67,-122.03,0.02,-0.29,0.95
11:22:51:22:553875,-18.81,-0.74,-121.76,-0.1,-0.23,0.91
11:22:51:22:553985,-19.29,-0.56,-122.23,0.09,-0.46,1.02
11:22:51:23:554066,-18.17,-1.7,-121.05,-0.06,-0.17,1.02
11:22:51:24:555481,-18.44,-2.36,-117.13,-0.15,-0.3,0.91
11:22:51:24:555594,-19.17,-1.52,-117.9,0.04,-0.37,0.96
11:22:51:24:555690,-18.65,-2.41,-117.37,-0.12,-0.27,0.93
11:22:51:24:555772,-18.53,-2.16,-117.6,0.01,-0.31,0.93
11:22:51:24:555866,-18.68,-2.23,-117.56,-0.0,-0.36,1.02
11:22:51:24:555994,-18.45,-3.19,-117.71,-0.11,-0.39,0.96
11:22:51:25:556074,-18.25,-4.06,-117.92,-0.11,-0.37,0.92
11:22:51:26:557466,-20.03,-2.46,-117.69,-0.06,-0.39,0.91
11:22:51:26:557577,-19.24,-2.81,-116.94,-0.07,-0.33,0.91
11:22:51:26:557688,-18.03,-3.2,-116.0,-0.04,-0.3,0.98
11:22:51:26:557786,-16.07,-3.17,-115.53,-0.07,-0.23,0.97
11:22:51:26:557880,-15.69,-2.81,-116.59,-0.07,-0.33,0.94
11:22:51:26:557976,-15.84,-2.01,-116.69,-0.06,-0.25,0.9
11:22:51:27:558071,-15.14,-1.98,-116.8,-0.05,-0.21,0.94
11:22:51:28:559474,-18.18,-1.0,-117.87,0.01,-0.31,0.92
11:22:51:28:559571,-18.12,-1.41,-117.91,-0.02,-0.33,0.95
11:22:51:28:559667,-18.42,-1.84,-118.19,-0.04,-0.34,0.99
11:22:51:28:559779,-18.06,-2.55,-118.38,-0.07,-0.35,0.95
11:22:51:28:559876,-18.14,-2.98,-118.8,-0.05,-0.33,0.93
11:22:51:28:559987,-17.95,-3.29,-118.78,-0.09,-0.28,0.94
11:22:51:29:560082,-18.06,-3.14,-118.92,-0.05,-0.31,0.9
11:22:51:30:561484,-19.04,-2.61,-120.96,-0.08,-0.3,0.92
11:22:51:30:561583,-19.51,-2.15,-120.66,-0.04,-0.35,0.89
11:22:51:30:561675,-18.87,-1.78,-120.13,-0.01,-0.29,0.9
11:22:51:30:561788,-18.95,-1.51,-120.1,-0.03,-0.31,0.86
11:22:51:30:561898,-19.02,-1.29,-120.14,0.0,-0.33,0.91
11:22:51:30:561995,-18.88,-1.5,-120.14,0.02,-0.34,1.01
11:22:51:31:562091,-18.5,-1.69,-119.85,-0.05,-0.29,0.98
11:22:51:32:563492,-20.04,-2.57,-118.36,-0.06,-0.33,0.93
11:22:51:32:563589,-19.22,-2.62,-118.17,-0.02,-0.34,0.96
11:22:51:32:563685,-18.84,-2.71,-117.82,-0.09,-0.31,0.93
11:22:51:32:563766,-18.23,-2.49,-118.05,-0.01,-0.34,0.94
11:22:51:32:563895,-17.12,-2.6,-117.61,-0.05,-0.23,0.95
11:22:51:32:563988,-16.32,-2.17,-117.75,-0.04,-0.25,0.88
11:22:51:33:564085,-16.5,-2.04,-117.96,-0.01,-0.3,0.92
11:22:51:34:565491,-14.04,-4.58,-117.97,-0.12,-0.29,0.95
11:22:51:34:565587,-15.0,-4.84,-118.62,-0.11,-0.26,0.96
11:22:51:34:565683,-15.25,-4.94,-119.26,-0.09,-0.23,0.93
11:22:51:34:565777,-16.13,-4.56,-119.75,-0.08,-0.31,0.9
11:22:51:34:565891,-16.42,-4.97,-119.47,-0.13,-0.28,0.98
11:22:51:34:565988,-16.68,-5.05,-119.31,-0.1,-0.31,0.98
11:22:51:35:566083,-16.49,-4.96,-119.16,-0.11,-0.26,0.96
11:22:51:36:567486,-18.52,-5.05,-117.94,-0.07,-0.35,0.95
11:22:51:36:567583,-20.01,-5.19,-118.23,-0.1,-0.38,0.93
11:22:51:36:567693,-19.95,-4.67,-117.86,-0.07,-0.31,0.85
11:22:51:36:567774,-20.81,-3.91,-117.64,-0.02,-0.35,0.87
11:22:51:36:567886,-20.83,-3.27,-117.29,-0.03,-0.38,0.9
11:22:51:36:567981,-21.1,-3.13,-117.03,-0.08,-0.37,0.88
11:22:51:37:568094,-21.36,-3.37,-117.21,-0.06,-0.41,0.88
11:22:51:38:569497,-20.21,-3.22,-116.36,-0.09,-0.37,0.95
11:22:51:38:569577,-19.77,-3.34,-116.39,-0.06,-0.34,0.99
11:22:51:38:569675,-19.49,-3.45,-116.48,-0.1,-0.34,0.93
11:22:51:38:569787,-18.69,-3.33,-116.57,-0.08,-0.37,0.85
11:22:51:38:569881,-17.2,-2.9,-115.99,-0.04,-0.22,0.95
11:22:51:38:569979,-16.61,-2.67,-116.09,-0.05,-0.29,0.94
11:22:51:39:570073,-16.98,-2.69,-116.37,0.02,-0.38,0.92
11:22:51:40:571472,-16.4,-2.2,-116.2,-0.01,-0.3,0.93
11:22:51:40:571586,-16.64,-1.64,-116.4,0.05,-0.33,0.93
11:22:51:40:571697,-16.84,-1.16,-116.45,0.05,-0.3,0.91
11:22:51:40:571792,-17.3,-0.47,-116.66,0.07,-0.28,0.94
11:22:51:40:571871,-18.59,0.33,-117.39,0.12,-0.42,0.95
11:22:51:40:571984,-18.13,-0.13,-117.54,0.06,-0.35,0.93
11:22:51:41:572079,-18.14,0.03,-117.43,-0.02,-0.31,0.93
11:22:51:42:573469,-19.71,2.28,-118.61,0.13,-0.37,0.96
11:22:51:42:573597,-20.36,2.6,-118.99,0.07,-0.41,0.91
11:22:51:42:573676,-20.36,2.54,-118.99,0.07,-0.34,0.88
11:22:51:42:573774,-20.08,2.32,-119.19,0.06,-0.33,0.89
11:22:51:42:573868,-20.6,2.58,-119.75,0.03,-0.36,0.9
11:22:51:42:573979,-20.97,2.8,-119.95,0.07,-0.39,0.91
11:22:51:43:574076,-21.08,2.26,-119.74,0.01,-0.37,0.95
11:22:51:44:575497,-23.84,3.93,-121.23,0.1,-0.44,0.88
11:22:51:44:575579,-23.67,4.14,-121.17,0.09,-0.41,0.9
11:22:51:44:575673,-24.1,4.86,-121.46,0.13,-0.48,0.86
11:22:51:44:575784,-23.95,4.7,-121.36,0.11,-0.41,0.86
11:22:51:44:575879,-23.92,4.87,-121.58,0.11,-0.44,0.87
11:22:51:44:575977,-23.95,4.9,-121.83,0.14,-0.47,0.95
11:22:51:45:576072,-23.61,4.76,-121.69,0.08,-0.44,0.87
11:22:51:46:577470,-25.38,4.26,-122.63,0.16,-0.44,0.91
11:22:51:46:577568,-25.88,4.91,-122.96,0.11,-0.45,0.88
11:22:51:46:577678,-25.45,4.72,-122.9,0.1,-0.42,0.92
11:22:51:46:577758,-24.73,4.21,-122.49,0.02,-0.39,0.94
11:22:51:46:577870,-24.53,4.35,-122.82,0.09,-0.43,0.9
11:22:51:46:577981,-24.3,4.12,-122.55,0.02,-0.39,0.93
11:22:51:47:578080,-24.5,4.06,-122.65,0.04,-0.43,0.87
11:22:51:48:579499,-22.96,2.88,-122.1,0.07,-0.33,0.9
11:22:51:48:579578,-22.65,2.65,-122.26,0.05,-0.41,0.92
11:22:51:48:579675,-22.08,2.53,-122.01,-0.0,-0.33,0.94
11:22:51:48:579754,-21.78,2.64,-121.9,0.01,-0.36,0.96
11:22:51:48:579867,-21.54,2.79,-121.83,0.05,-0.41,0.88
11:22:51:48:579994,-20.94,3.03,-121.82,0.12,-0.33,0.94
11:22:51:49:580073,-20.71,3.0,-121.64,0.02,-0.41,0.92
11:22:51:50:581445,-19.15,4.44,-121.6,0.13,-0.32,0.93
11:22:51:50:581571,-19.14,4.49,-121.68,0.11,-0.33,0.91
11:22:51:50:581668,-19.27,4.71,-121.67,0.09,-0.3,0.97
11:22:51:50:581764,-19.2,4.93,-121.74,0.1,-0.32,0.93
11:22:51:50:581877,-19.6,5.07,-121.9,0.06,-0.37,0.92
11:22:51:50:581972,-19.72,5.29,-122.13,0.15,-0.38,0.91
11:22:51:51:582068,-19.98,4.82,-121.8,0.05,-0.28,1.0
11:22:51:52:583361,-21.47,2.94,-123.46,0.06,-0.36,0.91
11:22:51:52:583477,-19.77,2.44,-122.56,-0.03,-0.24,0.94
11:22:51:52:583584,-20.79,3.3,-122.52,0.12,-0.42,0.87
11:22:51:52:583664,-21.0,3.09,-122.2,0.01,-0.39,0.91
11:22:51:52:583776,-20.2,2.57,-121.69,0.04,-0.38,0.92
11:22:51:52:583872,-19.03,2.33,-120.62,0.03,-0.24,0.94
11:22:51:52:583982,-19.34,2.41,-120.45,0.03,-0.34,0.96
11:22:51:53:584063,-20.5,2.98,-121.13,0.07,-0.38,0.93
11:22:51:54:585366,-18.75,-2.48,-119.38,-0.12,-0.3,0.95
11:22:51:54:585478,-18.24,-3.2,-119.47,-0.07,-0.29,0.92
11:22:51:54:585559,-18.38,-3.24,-121.22,-0.02,-0.33,0.93
11:22:51:54:585655,-18.27,-4.07,-122.61,-0.13,-0.29,0.95
11:22:51:54:585751,-17.95,-4.63,-123.04,-0.12,-0.3,0.94
11:22:51:54:585846,-18.01,-4.79,-122.91,-0.09,-0.3,0.92
11:22:51:54:585957,-17.68,-5.11,-123.38,-0.11,-0.29,0.95
11:22:51:55:586087,-17.51,-5.67,-124.02,-0.15,-0.26,0.94
11:22:51:56:587385,-17.68,-6.64,-122.05,-0.12,-0.26,0.95
11:22:51:56:587465,-17.64,-6.94,-121.99,-0.13,-0.28,0.94
