sysTime,roll,pitch,yaw,ax,ay,az,sqrt,average
5:21:43:51:11000,2.42,-1.94,-120.28,-0.03,0.04,0.98,0.99,0.0
5:21:43:51:11096,2.42,-1.94,-120.28,-0.03,0.04,0.98,0.99,0.0
5:21:43:51:11193,2.41,-1.94,-120.27,-0.03,0.04,0.98,0.99,0.0
5:21:43:51:11304,2.41,-1.94,-120.26,-0.03,0.04,0.98,0.98,0.0
5:21:43:51:11399,2.42,-1.95,-120.27,-0.03,0.04,0.98,0.98,0.0
5:21:43:51:11496,2.42,-1.95,-120.27,-0.03,0.04,0.98,0.98,0.0
5:21:43:51:11594,2.42,-1.95,-120.27,-0.03,0.04,0.98,0.98,0.0
5:21:43:52:12199,2.42,-1.95,-120.25,-0.03,0.04,0.98,0.98,0.0
5:21:43:52:12296,2.42,-1.94,-120.24,-0.03,0.04,0.98,0.98,0.0
5:21:43:52:12391,2.43,-1.95,-120.26,-0.03,0.04,0.98,0.99,0.0
5:21:43:52:12503,2.42,-1.96,-120.26,-0.03,0.04,0.98,0.99,0.0
5:21:43:52:12599,2.42,-1.96,-120.27,-0.03,0.04,0.98,0.98,0.0
5:21:43:52:12694,2.41,-1.95,-120.25,-0.03,0.03,0.99,0.99,0.0
5:21:43:52:12790,2.42,-1.96,-120.27,-0.03,0.03,0.98,0.98,0.0
5:21:43:53:12999,2.41,-1.95,-120.27,-0.03,0.04,0.98,0.98,0.0
5:21:43:53:13094,2.42,-1.95,-120.27,-0.03,0.04,0.98,0.98,0.0
5:21:43:53:13191,2.42,-1.95,-120.27,-0.03,0.03,0.98,0.99,0.0
5:21:43:53:13302,2.42,-1.95,-120.28,-0.03,0.04,0.98,0.98,0.0
5:21:43:53:13398,2.42,-1.95,-120.28,-0.03,0.03,0.98,0.98,0.0
5:21:43:53:13493,2.43,-1.95,-120.28,-0.03,0.04,0.98,0.98,0.0
5:21:43:53:13590,2.43,-1.96,-120.29,-0.03,0.04,0.98,0.98,0.0
5:21:43:54:14199,2.42,-1.97,-120.35,-0.03,0.03,0.98,0.98,0.0
5:21:43:54:14294,2.42,-1.96,-120.36,-0.03,0.03,0.99,0.99,0.0
5:21:43:54:14404,2.43,-1.96,-120.37,-0.03,0.04,0.98,0.98,0.0
5:21:43:54:14501,2.43,-1.96,-120.38,-0.03,0.03,0.99,0.99,0.0
5:21:43:54:14597,2.44,-1.96,-120.39,-0.03,0.04,0.98,0.99,0.0
5:21:43:54:14695,2.44,-1.96,-120.4,-0.03,0.04,0.98,0.98,0.0
5:21:43:54:14804,2.44,-1.96,-120.4,-0.03,0.04,0.98,0.98,0.0
5:21:43:55:14997,2.44,-1.96,-120.41,-0.03,0.04,0.98,0.98,0.0
5:21:43:55:15092,2.45,-1.95,-120.39,-0.03,0.04,0.99,0.99,0.0
5:21:43:55:15203,2.43,-1.94,-120.39,-0.03,0.04,0.98,0.98,0.0
5:21:43:55:15300,2.42,-1.94,-120.37,-0.03,0.04,0.99,0.99,0.0
5:21:43:55:15396,2.42,-1.95,-120.37,-0.03,0.04,0.98,0.98,0.0
5:21:43:55:15492,2.42,-1.95,-120.37,-0.03,0.04,0.98,0.99,0.0
5:21:43:55:15604,2.42,-1.95,-120.37,-0.03,0.04,0.98,0.98,0.0
5:21:43:56:16197,2.42,-1.95,-120.34,-0.03,0.04,0.98,0.98,0.0
5:21:43:56:16294,2.42,-1.94,-120.33,-0.03,0.04,0.98,0.98,0.0
5:21:43:56:16403,2.42,-1.94,-120.34,-0.03,0.04,0.98,0.98,0.0
5:21:43:56:16499,2.41,-1.95,-120.33,-0.03,0.03,0.98,0.99,0.0
5:21:43:56:16595,2.4,-1.94,-120.29,-0.03,0.04,0.98,0.98,0.0
5:21:43:56:16691,2.39,-1.95,-120.3,-0.03,0.04,0.98,0.98,0.0
5:21:43:56:16804,2.38,-1.95,-120.28,-0.03,0.03,0.98,0.99,0.0
5:21:43:57:16995,2.38,-1.95,-120.25,-0.03,0.03,0.98,0.98,0.0
5:21:43:57:17092,2.39,-1.96,-120.28,-0.03,0.04,0.99,0.99,0.0
5:21:43:57:17203,2.4,-1.96,-120.27,-0.03,0.04,0.98,0.98,0.0
5:21:43:57:17300,2.4,-1.95,-120.26,-0.03,0.04,0.98,0.98,0.0
5:21:43:57:17397,2.4,-1.95,-120.27,-0.03,0.04,0.98,0.98,0.0
5:21:43:57:17491,2.4,-1.95,-120.27,-0.03,0.04,0.99,0.99,0.0
5:21:43:57:17602,2.41,-1.94,-120.29,-0.03,0.04,0.98,0.98,0.0
5:21:43:58:18194,2.43,-1.96,-120.3,-0.03,0.04,0.98,0.98,0.0
5:21:43:58:18290,2.43,-1.96,-120.3,-0.03,0.04,0.97,0.98,0.0
5:21:43:58:18403,2.42,-1.97,-120.3,-0.03,0.04,0.98,0.98,0.0
5:21:43:58:18498,2.43,-1.97,-120.31,-0.03,0.04,0.98,0.99,0.0
5:21:43:58:18594,2.43,-1.96,-120.32,-0.03,0.03,0.98,0.98,0.0
5:21:43:58:18690,2.43,-1.96,-120.32,-0.03,0.04,0.98,0.98,0.0
5:21:43:58:18802,2.43,-1.96,-120.35,-0.03,0.05,0.98,0.98,0.0
5:21:43:59:18994,2.43,-1.98,-120.4,-0.03,0.04,0.98,0.98,0.0
5:21:43:59:19089,2.43,-1.99,-120.41,-0.03,0.04,0.98,0.98,0.0
5:21:43:59:19202,2.44,-1.98,-120.43,-0.03,0.04,0.98,0.99,0.0
5:21:43:59:19297,2.43,-1.99,-120.43,-0.03,0.04,0.98,0.98,0.0
5:21:43:59:19393,2.43,-1.99,-120.43,-0.03,0.04,0.98,0.99,0.0
5:21:43:59:19504,2.44,-1.99,-120.45,-0.03,0.04,0.98,0.98,0.0
5:21:43:59:19602,2.45,-1.99,-120.48,-0.03,0.04,0.98,0.99,0.0
5:21:44:0:20192,2.44,-1.99,-120.52,-0.03,0.03,0.98,0.98,0.0
5:21:44:0:20304,2.44,-1.98,-120.53,-0.03,0.04,0.98,0.98,0.0
5:21:44:0:20401,2.44,-1.98,-120.56,-0.03,0.04,0.98,0.98,0.0
5:21:44:0:20496,2.44,-1.97,-120.55,-0.03,0.04,0.99,0.99,0.0
5:21:44:0:20593,2.43,-1.96,-120.54,-0.03,0.04,0.98,0.98,0.0
5:21:44:0:20703,2.44,-1.96,-120.55,-0.03,0.03,0.98,0.99,0.0
5:21:44:0:20800,2.44,-1.96,-120.56,-0.03,0.04,0.98,0.98,0.0
5:21:44:1:20992,2.44,-1.97,-120.55,-0.03,0.04,0.99,0.99,0.0
5:21:44:1:21104,2.44,-1.97,-120.57,-0.03,0.04,0.98,0.98,0.0
5:21:44:1:21201,2.44,-1.97,-120.58,-0.03,0.04,0.98,0.98,0.0
5:21:44:1:21296,2.45,-1.98,-120.59,-0.03,0.04,0.98,0.98,0.0
5:21:44:1:21391,2.45,-1.97,-120.6,-0.03,0.04,0.98,0.98,0.0
5:21:44:1:21504,2.45,-1.98,-120.61,-0.03,0.04,0.98,0.98,0.0
5:21:44:1:21600,2.45,-1.98,-120.6,-0.03,0.04,0.98,0.98,0.0
5:21:44:2:22191,2.44,-1.98,-120.62,-0.03,0.04,0.98,0.99,0.0
5:21:44:2:22303,2.44,-1.98,-120.62,-0.03,0.04,0.98,0.98,0.0
5:21:44:2:22399,2.44,-1.99,-120.62,-0.03,0.04,0.98,0.99,0.0
5:21:44:2:22496,2.44,-1.97,-120.56,-0.03,0.04,0.98,0.98,0.0
5:21:44:2:22593,2.43,-1.96,-120.52,-0.03,0.04,0.98,0.99,0.0
5:21:44:2:22702,2.43,-1.95,-120.49,-0.03,0.04,0.99,0.99,0.0
5:21:44:2:22799,2.43,-1.95,-120.49,-0.03,0.04,0.98,0.99,0.0
5:21:44:3:22991,2.42,-1.95,-120.45,-0.03,0.04,0.98,0.99,0.0
5:21:44:3:23103,2.41,-1.96,-120.43,-0.03,0.04,0.98,0.98,0.0
5:21:44:3:23198,2.41,-1.95,-120.41,-0.03,0.04,0.98,0.98,0.0
5:21:44:3:23295,2.41,-1.96,-120.42,-0.03,0.04,0.98,0.98,0.0
5:21:44:3:23391,2.41,-1.96,-120.41,-0.03,0.04,0.98,0.98,0.0
5:21:44:3:23503,2.42,-1.96,-120.41,-0.03,0.04,0.99,0.99,0.0
5:21:44:3:23598,2.42,-1.96,-120.41,-0.03,0.04,0.98,0.99,0.0
5:21:44:4:24191,2.44,-1.96,-120.41,-0.03,0.04,0.98,0.98,0.0
5:21:44:4:24301,2.43,-1.97,-120.42,-0.03,0.04,0.98,0.98,0.0
5:21:44:4:24397,2.44,-1.97,-120.43,-0.03,0.04,0.98,0.98,0.0
5:21:44:4:24493,2.44,-1.97,-120.44,-0.03,0.04,0.98,0.98,0.0
5:21:44:4:24604,2.44,-1.97,-120.44,-0.03,0.04,0.98,0.98,0.0
5:21:44:4:24701,2.44,-1.98,-120.44,-0.03,0.04,0.98,0.98,0.0
5:21:44:4:24798,2.44,-1.98,-120.47,-0.03,0.04,0.99,0.99,0.0
5:21:44:5:25004,2.43,-1.96,-120.45,-0.03,0.04,0.98,0.98,0.0
5:21:44:5:25101,2.44,-1.97,-120.44,-0.04,0.04,0.99,0.99,0.0
5:21:44:5:25196,2.44,-1.96,-120.43,-0.03,0.04,0.98,0.98,0.0
5:21:44:5:25293,2.43,-1.96,-120.41,-0.03,0.04,0.98,0.98,0.0
5:21:44:5:25404,2.43,-1.96,-120.4,-0.03,0.04,0.98,0.98,0.0
5:21:44:5:25500,2.43,-1.96,-120.42,-0.03,0.04,0.98,0.98,0.0
5:21:44:5:25596,2.43,-1.96,-120.41,-0.03,0.04,0.98,0.98,0.0
5:21:44:6:26203,2.43,-1.96,-120.38,-0.03,0.04,0.98,0.98,0.0
5:21:44:6:26301,2.43,-1.97,-120.42,-0.02,0.04,0.98,0.98,0.0
5:21:44:6:26397,2.44,-1.97,-120.41,-0.03,0.04,0.98,0.98,0.0
5:21:44:6:26493,2.43,-1.97,-120.4,-0.03,0.04,0.99,0.99,0.0
5:21:44:6:26603,2.43,-1.97,-120.39,-0.04,0.03,0.98,0.99,0.0
5:21:44:6:26700,2.43,-1.98,-120.41,-0.03,0.05,0.98,0.98,0.0
5:21:44:6:26795,2.43,-1.99,-120.41,-0.03,0.04,0.99,0.99,0.0
5:21:44:7:27003,2.43,-1.98,-120.43,-0.03,0.04,0.98,0.98,0.0
5:21:44:7:27099,2.43,-1.99,-120.44,-0.03,0.04,0.98,0.98,0.0
5:21:44:7:27195,2.43,-1.99,-120.46,-0.03,0.04,0.98,0.98,0.0
5:21:44:7:27291,2.43,-1.99,-120.48,-0.03,0.04,0.98,0.99,0.0
5:21:44:7:27402,2.44,-1.99,-120.5,-0.03,0.03,0.98,0.99,0.0
5:21:44:7:27498,2.43,-2.0,-120.51,-0.03,0.03,0.98,0.98,0.0
5:21:44:7:27596,2.44,-1.99,-120.51,-0.03,0.04,0.98,0.98,0.0
5:21:44:8:28202,2.46,-1.98,-120.51,-0.03,0.04,0.98,0.98,0.0
5:21:44:8:28299,2.45,-1.98,-120.49,-0.03,0.04,0.98,0.98,0.0
5:21:44:8:28394,2.45,-1.98,-120.47,-0.03,0.04,0.98,0.98,0.0
5:21:44:8:28491,2.45,-1.97,-120.43,-0.03,0.04,0.98,0.98,0.0
5:21:44:8:28602,2.44,-1.97,-120.41,-0.03,0.04,0.98,0.98,0.0
5:21:44:8:28698,2.43,-1.98,-120.38,-0.03,0.05,0.98,0.98,0.0
5:21:44:8:28794,2.44,-1.97,-120.37,-0.02,0.05,0.98,0.98,0.0
5:21:44:9:29002,2.69,-1.79,-122.81,-0.05,0.02,0.98,0.99,0.0
5:21:44:9:29099,2.5,-1.74,-123.5,-0.01,0.0,0.97,0.97,0.0
5:21:44:9:29193,2.48,-1.71,-123.98,-0.04,0.0,0.98,0.98,0.0
5:21:44:9:29304,2.5,-1.72,-123.58,-0.06,-0.02,0.9,0.91,0.0
5:21:44:9:29402,2.64,-1.62,-121.91,-0.06,0.17,0.95,0.96,0.0
5:21:44:9:29499,2.44,-1.63,-123.96,-0.04,0.03,0.98,0.98,0.0
5:21:44:9:29595,2.53,-1.68,-123.94,-0.05,0.12,0.98,0.99,0.0
5:21:44:10:30201,2.84,-1.54,-125.12,-0.03,0.01,0.99,0.99,0.0
5:21:44:10:30297,2.44,-1.59,-125.08,-0.07,0.03,0.98,0.98,0.0
5:21:44:10:30392,2.39,-1.68,-121.83,-0.03,0.08,0.98,0.98,0.0
5:21:44:10:30504,2.48,-1.69,-121.6,-0.06,0.05,0.99,0.99,0.0
5:21:44:10:30600,2.64,-1.62,-121.67,-0.05,0.08,0.96,0.97,0.0
5:21:44:10:30697,2.67,-1.54,-122.19,-0.0,0.04,0.98,0.98,0.0
5:21:44:10:30792,3.32,-1.59,-123.91,0.0,-0.02,1.07,1.07,0.33
5:21:44:11:31001,3.13,-1.95,-126.36,0.21,-0.07,0.99,1.01,0.67
5:21:44:11:31098,-14.24,-10.01,-121.49,-0.2,-0.24,0.41,0.51,0.67
5:21:44:11:31193,-20.31,-18.32,-117.85,-0.43,-0.31,0.83,0.99,0.33
5:21:44:11:31303,-14.53,-16.24,-118.64,-0.42,-0.24,0.87,0.99,0.0
5:21:44:11:31401,-10.2,-14.42,-121.52,-0.01,0.05,1.15,1.15,0.33
5:21:44:11:31498,-6.91,-9.7,-125.45,-0.05,-0.13,1.13,1.14,0.67
5:21:44:11:31594,-6.22,-4.21,-127.75,-0.05,-0.14,0.93,0.95,0.67
5:21:44:12:32201,2.12,-9.52,-140.48,-0.21,-0.04,0.99,1.01,0.67
5:21:44:12:32296,7.53,-6.46,-140.75,-0.17,0.15,0.95,0.97,0.33
5:21:44:12:32391,11.35,-2.81,-141.08,-0.12,0.22,0.91,0.95,0.33
5:21:44:12:32502,11.82,0.79,-140.53,-0.07,0.15,1.0,1.01,0.33
5:21:44:12:32600,10.81,3.29,-140.23,0.02,0.14,0.98,0.99,0.33
5:21:44:12:32697,10.86,3.27,-138.46,-0.0,0.22,1.07,1.09,0.67
5:21:44:12:32792,17.93,5.9,-137.44,0.08,0.36,0.9,0.97,0.33
5:21:44:13:32998,22.59,6.22,-136.0,0.07,0.4,0.92,1.01,0.67
5:21:44:13:33095,22.83,4.57,-135.23,0.08,0.43,0.95,1.05,0.67
5:21:44:13:33190,20.89,4.64,-134.0,0.06,0.32,0.9,0.95,0.67
5:21:44:13:33302,21.09,5.05,-133.66,0.08,0.3,0.86,0.92,0.33
5:21:44:13:33398,22.25,4.97,-133.6,0.06,0.39,0.97,1.04,0.33
5:21:44:13:33494,23.22,5.49,-133.37,0.12,0.43,1.03,1.12,0.67
5:21:44:13:33591,17.85,3.62,-133.87,0.26,0.48,2.01,2.08,1.33
5:21:44:14:34199,-11.73,25.21,-113.7,0.42,-0.23,0.48,0.68,1.0
5:21:44:14:34295,-16.02,20.88,-114.6,0.5,-0.31,0.44,0.74,0.67
5:21:44:14:34391,-15.14,15.48,-114.72,0.27,-0.19,0.38,0.5,0.0
5:21:44:14:34501,-14.05,10.01,-112.91,0.04,-0.07,0.39,0.39,0.0
5:21:44:14:34599,-13.07,4.06,-111.95,-0.15,-0.24,0.52,0.59,0.0
5:21:44:14:34695,-7.07,-7.26,-114.55,-0.35,0.01,1.45,1.49,0.33
5:21:44:14:34805,-2.88,-13.69,-115.79,-0.45,-0.1,1.64,1.71,0.67
5:21:44:15:34998,11.18,-11.13,-120.03,-0.17,0.16,1.14,1.17,1.0
5:21:44:15:35093,18.05,-9.34,-122.08,-0.11,0.36,1.02,1.09,1.0
5:21:44:15:35204,22.66,-9.33,-122.99,-0.2,0.44,0.93,1.05,1.0
5:21:44:15:35301,23.57,-13.87,-122.52,-0.31,0.43,0.98,1.11,1.0
5:21:44:15:35398,22.16,-16.54,-123.23,-0.32,0.42,0.9,1.05,1.0
5:21:44:15:35493,21.16,-16.1,-124.78,-0.35,0.33,0.87,0.99,0.67
5:21:44:15:35604,20.82,-14.38,-125.2,-0.3,0.31,0.76,0.88,0.33
5:21:44:16:36198,19.93,-13.91,-122.44,-0.15,0.29,0.91,0.97,0.0
5:21:44:16:36294,19.05,-13.7,-121.98,-0.17,0.29,0.9,0.96,0.0
5:21:44:16:36404,19.1,-12.72,-122.22,-0.16,0.3,0.94,1.0,0.0
5:21:44:16:36500,19.51,-11.68,-122.88,-0.16,0.31,0.96,1.03,0.33
5:21:44:16:36597,19.7,-11.73,-123.75,-0.2,0.32,0.93,1.0,0.67
5:21:44:16:36693,19.34,-12.01,-124.64,-0.2,0.28,0.9,0.97,0.67
5:21:44:16:36804,19.07,-12.63,-125.44,-0.24,0.26,0.88,0.95,0.33
5:21:44:17:36998,20.24,-15.17,-126.66,-0.28,0.41,1.32,1.41,0.33
5:21:44:17:37092,17.8,-13.3,-125.76,-0.46,0.45,1.57,1.7,0.67
5:21:44:17:37203,11.95,-6.8,-123.99,-0.42,0.36,1.31,1.42,1.0
5:21:44:17:37300,6.45,2.38,-121.38,-0.34,0.38,1.0,1.13,1.0
5:21:44:17:37396,0.98,12.74,-119.74,0.04,0.16,0.57,0.59,0.67
5:21:44:17:37491,-6.39,21.01,-119.0,0.28,-0.11,0.12,0.32,0.33
5:21:44:17:37602,-10.66,23.13,-118.11,0.53,-0.29,0.03,0.61,0.0
5:21:44:18:38197,27.97,-15.26,-141.12,-0.26,0.48,1.76,1.85,0.33
5:21:44:18:38292,28.14,-13.66,-138.86,-0.59,0.78,1.94,2.17,1.0
5:21:44:18:38403,17.45,-7.15,-135.98,-0.37,0.58,1.52,1.67,1.33
5:21:44:18:38499,3.81,1.45,-131.81,-0.28,0.45,1.11,1.23,1.33
5:21:44:18:38595,-5.53,8.64,-128.99,-0.06,0.16,0.47,0.5,0.67
5:21:44:18:38691,-13.23,15.31,-126.58,0.18,0.04,0.06,0.2,0.33
5:21:44:18:38802,-15.89,19.52,-127.58,0.68,-0.18,0.38,0.8,0.0
5:21:44:19:38995,-17.7,21.87,-141.08,0.29,-0.16,0.73,0.8,0.0
5:21:44:19:39090,-18.41,18.78,-150.1,0.06,-0.23,0.85,0.88,0.0
5:21:44:19:39203,-19.81,14.4,-159.07,-0.09,-0.46,0.93,1.04,0.33
5:21:44:19:39299,-21.12,12.3,-163.09,-0.18,-0.68,0.99,1.21,0.67
5:21:44:19:39394,-22.83,11.63,-162.11,-0.16,-0.87,0.96,1.3,1.0
5:21:44:19:39505,-23.58,12.22,-156.81,-0.25,-0.73,1.01,1.27,1.0
5:21:44:19:39602,-23.28,14.31,-147.02,-0.27,-0.47,0.83,0.99,0.67
5:21:44:20:40193,3.09,-12.89,-101.6,-0.34,0.2,1.22,1.29,0.67
5:21:44:20:40305,17.37,-11.5,-112.83,-0.13,0.47,0.9,1.02,0.67
5:21:44:20:40401,26.18,-15.1,-119.51,-0.45,0.91,1.03,1.44,1.0
5:21:44:20:40497,32.08,-18.44,-129.61,-0.45,0.75,1.23,1.51,1.0
5:21:44:20:40593,32.04,-18.83,-137.44,-0.49,0.73,0.96,1.3,1.0
5:21:44:20:40704,29.46,-18.29,-147.99,-0.51,0.69,1.01,1.33,1.0
5:21:44:20:40801,23.32,-16.79,-159.29,-0.61,0.42,1.49,1.66,1.0
5:21:44:21:40993,3.88,-6.0,-165.68,-0.58,0.09,1.16,1.3,1.0
5:21:44:21:41104,-8.85,-0.66,-163.85,-0.91,-0.3,0.88,1.3,1.0
5:21:44:21:41200,-16.51,6.02,-158.43,-0.71,-0.45,0.53,0.99,0.67
5:21:44:21:41297,-21.91,15.79,-141.8,-0.38,-0.34,0.39,0.65,0.33
