sysTime,roll,pitch,yaw,ax,ay,az
4:23:51:36:535617,77.36,56.86,27.56,0.84,0.52,0.09
4:23:51:36:535618,77.08,56.7,27.6,0.83,0.53,0.16
4:23:51:36:535665,77.33,56.36,28.24,0.81,0.56,0.11
4:23:51:37:535743,77.02,56.65,28.01,0.83,0.52,0.15
4:23:51:37:535857,76.75,56.7,27.88,0.83,0.53,0.12
4:23:51:37:535952,76.94,56.85,28.21,0.84,0.53,0.12
4:23:51:37:536047,76.94,56.81,28.14,0.84,0.53,0.12
4:23:51:37:536240,76.56,57.64,27.99,0.87,0.47,0.12
4:23:51:37:536336,77.19,57.39,28.48,0.83,0.54,0.11
4:23:51:37:536448,77.16,56.34,27.67,0.84,0.52,0.13
4:23:51:37:536543,77.5,55.09,26.91,0.8,0.58,0.12
4:23:51:37:536640,77.26,55.17,27.39,0.82,0.55,0.13
4:23:51:38:536735,77.48,55.59,28.15,0.82,0.55,0.12
4:23:51:38:536847,77.27,55.6,27.88,0.82,0.54,0.14
4:23:51:38:537440,79.4,56.96,30.55,0.85,0.51,0.09
4:23:51:38:537534,78.44,56.48,28.95,0.81,0.55,0.17
4:23:51:38:537646,78.43,55.9,30.04,0.83,0.55,0.1
4:23:51:39:537743,79.17,56.0,30.67,0.83,0.54,0.12
4:23:51:39:537839,80.29,56.08,33.99,0.83,0.55,0.06
4:23:51:39:537949,79.9,54.81,34.73,0.8,0.57,0.18
4:23:51:39:538046,79.77,53.59,33.5,0.79,0.6,0.08
4:23:51:39:538239,77.95,55.14,30.31,0.82,0.55,0.12
4:23:51:39:538350,77.46,55.48,29.54,0.81,0.55,0.14
4:23:51:39:538430,77.15,56.0,29.34,0.84,0.52,0.11
4:23:51:39:538542,76.77,56.05,28.77,0.83,0.54,0.14
4:23:51:39:538654,77.03,55.64,28.51,0.82,0.55,0.12
4:23:51:40:538750,76.83,55.51,28.17,0.82,0.55,0.13
4:23:51:40:538845,76.99,54.98,28.19,0.82,0.55,0.13
4:23:51:40:539437,75.89,56.99,27.59,0.84,0.52,0.13
4:23:51:40:539533,75.86,57.04,27.36,0.84,0.52,0.14
4:23:51:40:539645,75.75,57.14,27.38,0.84,0.52,0.13
4:23:51:41:539740,75.77,57.03,27.41,0.82,0.54,0.14
4:23:51:41:539836,75.39,57.47,26.98,0.85,0.5,0.16
4:23:51:41:539932,75.54,57.15,26.72,0.83,0.53,0.14
4:23:51:41:540060,75.72,56.82,27.09,0.84,0.51,0.14
4:23:51:41:540348,75.98,56.12,26.53,0.83,0.53,0.16
4:23:51:41:540444,76.11,55.63,26.44,0.83,0.54,0.12
4:23:51:41:540540,76.64,54.67,27.09,0.81,0.57,0.15
4:23:51:41:540652,76.47,53.67,26.97,0.79,0.58,0.17
4:23:51:42:540748,77.31,51.96,28.42,0.8,0.58,0.12
4:23:51:42:540844,78.49,48.24,27.81,0.7,0.71,0.13
4:23:51:42:540956,78.74,46.85,28.95,0.72,0.68,0.11
4:23:51:42:541451,78.03,49.06,30.24,0.73,0.67,0.14
4:23:51:42:541547,77.53,51.28,30.47,0.8,0.58,0.13
4:23:51:42:541644,77.43,51.84,29.48,0.77,0.62,0.11
4:23:51:43:541740,76.99,52.24,28.66,0.79,0.6,0.1
4:23:51:43:541835,75.21,52.87,25.97,0.78,0.58,0.18
4:23:51:43:541947,75.59,54.1,28.64,0.83,0.55,0.12
4:23:51:43:542043,76.26,54.09,30.06,0.79,0.59,0.13
4:23:51:43:542251,77.33,54.36,32.18,0.82,0.57,0.07
4:23:51:43:542347,78.48,52.33,32.52,0.78,0.6,0.15
4:23:51:43:542443,78.44,51.25,32.55,0.77,0.62,0.11
4:23:51:43:542539,78.35,49.72,32.72,0.77,0.61,0.14
4:23:51:43:542635,78.78,47.4,32.33,0.7,0.7,0.12
4:23:51:44:542731,78.35,47.8,32.25,0.73,0.67,0.14
4:23:51:44:542858,77.38,49.51,32.78,0.78,0.6,0.14
4:23:51:44:543446,78.39,47.48,34.88,0.74,0.66,0.13
4:23:51:44:543542,78.52,47.21,35.05,0.72,0.67,0.13
4:23:51:44:543654,78.46,47.19,34.96,0.73,0.66,0.13
4:23:51:45:543750,78.43,47.02,34.87,0.72,0.67,0.13
4:23:51:45:543845,78.06,47.05,34.44,0.72,0.66,0.15
4:23:51:45:543957,78.07,46.97,34.74,0.74,0.66,0.13
4:23:51:45:544038,77.94,46.17,33.42,0.7,0.69,0.17
4:23:51:45:544245,77.59,47.41,33.37,0.74,0.65,0.12
4:23:51:45:544341,77.15,49.22,33.2,0.77,0.62,0.13
4:23:51:45:544453,77.36,49.42,33.52,0.77,0.62,0.15
4:23:51:45:544549,77.43,48.64,31.98,0.74,0.66,0.13
4:23:51:45:544645,76.61,49.37,32.22,0.76,0.62,0.17
4:23:51:46:544741,77.18,49.78,33.04,0.73,0.64,0.15
4:23:51:46:544838,77.33,50.03,34.61,0.79,0.6,0.09
4:23:51:46:545444,77.36,47.93,33.29,0.74,0.65,0.15
4:23:51:46:545540,77.32,48.29,33.21,0.75,0.64,0.15
4:23:51:46:545637,77.23,48.52,33.58,0.75,0.64,0.16
4:23:51:47:545763,77.33,48.59,33.43,0.76,0.64,0.15
4:23:51:47:545860,77.19,48.93,33.19,0.76,0.61,0.14
4:23:51:47:545956,77.43,48.11,32.47,0.72,0.67,0.16
4:23:51:47:546052,77.25,47.87,32.73,0.74,0.64,0.15
4:23:51:47:546260,77.61,47.26,33.18,0.72,0.67,0.15
4:23:51:47:546355,77.73,47.23,33.79,0.74,0.65,0.15
4:23:51:47:546452,77.88,47.24,34.06,0.73,0.66,0.14
4:23:51:47:546547,77.7,47.51,33.96,0.75,0.67,0.15
4:23:51:47:546643,77.57,47.72,34.01,0.73,0.65,0.15
4:23:51:48:546740,77.47,47.86,34.06,0.74,0.65,0.15
4:23:51:48:546851,77.61,47.91,33.28,0.73,0.66,0.15
4:23:51:48:547443,77.75,48.52,35.65,0.72,0.67,0.18
4:23:51:48:547539,78.13,48.33,35.99,0.75,0.62,0.14
4:23:51:48:547635,78.17,48.16,35.84,0.74,0.65,0.14
4:23:51:49:547746,78.2,47.52,35.73,0.73,0.66,0.15
4:23:51:49:547858,78.33,46.8,35.92,0.73,0.66,0.13
4:23:51:49:547954,78.36,46.2,35.97,0.72,0.67,0.13
4:23:51:49:548050,78.3,45.82,35.98,0.71,0.68,0.14
4:23:51:49:548242,78.41,45.25,36.49,0.7,0.69,0.13
4:23:51:49:548372,78.37,44.93,36.53,0.71,0.68,0.14
4:23:51:49:548437,78.66,44.15,36.49,0.72,0.69,0.13
4:23:51:49:548532,78.71,43.15,35.85,0.7,0.69,0.13
4:23:51:49:548659,78.57,42.65,35.99,0.64,0.74,0.14
4:23:51:50:548755,78.48,42.39,36.14,0.65,0.7,0.16
4:23:51:50:548852,78.43,42.11,36.61,0.68,0.71,0.12
4:23:51:50:549460,78.63,40.32,37.39,0.63,0.7,0.11
4:23:51:50:549539,78.41,40.29,37.74,0.64,0.74,0.15
4:23:51:50:549651,78.61,39.82,38.31,0.62,0.76,0.15
4:23:51:51:549747,78.47,39.62,38.41,0.63,0.77,0.16
4:23:51:51:549843,78.49,39.6,38.82,0.65,0.72,0.15
4:23:51:51:549939,78.51,39.71,38.82,0.65,0.72,0.15
4:23:51:51:550051,78.5,39.57,38.97,0.63,0.78,0.11
4:23:51:51:550242,78.75,39.04,39.94,0.6,0.78,0.14
4:23:51:51:550338,78.42,39.5,40.18,0.63,0.76,0.15
4:23:51:51:550435,78.35,40.03,40.65,0.63,0.76,0.13
4:23:51:51:550546,78.43,40.12,41.23,0.63,0.76,0.12
4:23:51:51:550642,78.55,40.17,40.99,0.64,0.76,0.14
4:23:51:52:550738,78.53,40.04,40.74,0.63,0.76,0.13
4:23:51:52:550835,78.59,40.37,40.88,0.63,0.76,0.13
4:23:51:52:551442,78.32,44.3,39.22,0.7,0.7,0.15
4:23:51:52:551538,78.22,45.13,38.92,0.7,0.69,0.14
4:23:51:52:551634,78.07,45.93,38.48,0.72,0.67,0.15
4:23:51:53:551745,78.04,45.84,37.95,0.73,0.67,0.14
4:23:51:53:551858,78.28,45.16,37.85,0.69,0.71,0.13
4:23:51:53:551953,78.19,45.14,37.85,0.71,0.69,0.14
4:23:51:53:552049,78.2,45.16,38.21,0.71,0.69,0.15
4:23:51:53:552241,78.52,44.96,39.01,0.71,0.68,0.14
4:23:51:53:552337,78.51,44.96,38.98,0.71,0.69,0.14
4:23:51:53:552434,78.68,44.7,39.29,0.7,0.69,0.15
4:23:51:53:552544,78.78,44.57,39.35,0.67,0.68,0.14
4:23:51:53:552657,78.81,44.76,39.07,0.71,0.69,0.14
4:23:51:54:552753,78.79,44.94,38.65,0.7,0.69,0.15
4:23:51:54:552849,78.69,45.01,38.23,0.71,0.69,0.14
4:23:51:54:553440,78.77,44.46,37.69,0.7,0.68,0.15
4:23:51:54:553552,78.81,44.15,37.31,0.69,0.71,0.14
4:23:51:54:553648,78.64,44.5,36.9,0.7,0.69,0.15
4:23:51:55:553744,78.52,44.73,36.8,0.69,0.68,0.15
4:23:51:55:553840,78.35,44.95,36.75,0.7,0.69,0.15
4:23:51:55:553951,78.28,45.04,36.54,0.71,0.68,0.14
4:23:51:55:554048,78.11,45.26,36.46,0.73,0.65,0.14
4:23:51:55:554240,78.2,44.28,36.51,0.7,0.7,0.14
4:23:51:55:554336,78.27,44.03,36.72,0.7,0.69,0.14
4:23:51:55:554447,78.43,43.1,36.58,0.66,0.73,0.15
4:23:51:55:554543,78.74,42.71,36.96,0.67,0.72,0.15
4:23:51:55:554640,78.59,42.56,37.05,0.66,0.73,0.16
4:23:51:56:554751,78.54,43.36,38.31,0.72,0.67,0.12
4:23:51:56:554847,78.53,42.87,37.32,0.67,0.72,0.13
4:23:51:56:555455,78.53,42.7,37.24,0.68,0.72,0.14
4:23:51:56:555551,78.86,41.95,37.82,0.67,0.72,0.14
4:23:51:56:555646,79.48,40.23,39.08,0.68,0.7,0.15
4:23:51:57:555742,81.69,35.5,41.72,0.55,0.82,0.09
4:23:51:57:555854,84.14,31.06,43.8,0.45,0.91,0.04
4:23:51:57:555934,84.75,30.9,45.0,0.49,0.89,0.02
4:23:51:57:556062,83.03,33.3,44.46,0.53,0.84,0.1
4:23:51:57:556238,80.41,37.97,43.68,0.61,0.77,0.13
4:23:51:57:556350,79.13,40.34,42.46,0.64,0.75,0.15
4:23:51:57:556446,78.76,41.6,42.34,0.66,0.73,0.15
4:23:51:57:556542,78.17,43.08,41.76,0.69,0.7,0.14
4:23:51:57:556638,78.26,43.12,41.48,0.68,0.73,0.13
4:23:51:58:556734,78.26,43.21,41.42,0.68,0.71,0.15
4:23:51:58:556829,78.42,43.53,41.31,0.68,0.73,0.14
4:23:51:58:557437,78.68,40.97,40.04,0.67,0.71,0.15
4:23:51:58:557533,78.94,40.91,39.73,0.65,0.74,0.14
4:23:51:58:557660,78.94,41.08,39.95,0.65,0.74,0.13
4:23:51:59:557757,78.95,41.33,40.18,0.66,0.73,0.15
4:23:51:59:557853,79.12,41.11,40.2,0.64,0.75,0.13
4:23:51:59:557949,78.96,41.28,40.33,0.67,0.74,0.15
4:23:51:59:558045,78.98,41.32,40.34,0.65,0.73,0.16
4:23:51:59:558252,79.48,41.17,40.54,0.66,0.73,0.14
4:23:51:59:558349,79.75,40.83,40.62,0.65,0.74,0.13
4:23:51:59:558444,80.18,40.35,40.97,0.65,0.75,0.12
4:23:51:59:558540,80.36,40.01,41.33,0.64,0.76,0.12
4:23:51:59:558652,80.05,40.1,41.39,0.63,0.76,0.14
4:23:52:0:558748,79.94,40.25,41.66,0.64,0.76,0.12
4:23:52:0:558844,79.83,40.16,41.82,0.64,0.75,0.13
4:23:52:0:559467,80.1,39.26,43.71,0.63,0.76,0.13
4:23:52:0:559547,80.27,38.8,43.89,0.61,0.79,0.11
4:23:52:0:559643,79.93,39.3,43.07,0.64,0.74,0.15
4:23:52:1:559739,79.95,39.26,43.12,0.62,0.77,0.13
4:23:52:1:559851,80.05,39.13,43.36,0.63,0.76,0.13
4:23:52:1:559947,79.99,39.37,43.78,0.63,0.76,0.12
4:23:52:1:560058,80.06,39.41,44.18,0.63,0.76,0.14
4:23:52:1:560251,80.31,39.09,44.31,0.62,0.77,0.14
4:23:52:1:560347,80.45,39.1,44.71,0.63,0.76,0.13
4:23:52:1:560443,80.6,38.76,45.15,0.62,0.77,0.12
4:23:52:1:560539,80.63,38.42,45.39,0.61,0.78,0.13
4:23:52:1:560651,80.67,38.29,45.51,0.61,0.78,0.12
4:23:52:2:560762,80.55,38.48,45.49,0.62,0.76,0.14
4:23:52:2:560842,80.46,38.82,45.4,0.63,0.76,0.13
4:23:52:2:561434,80.29,40.27,45.22,0.66,0.73,0.13
4:23:52:2:561546,80.49,39.98,45.26,0.64,0.75,0.13
4:23:52:2:561642,80.61,39.58,45.16,0.64,0.75,0.12
4:23:52:3:561754,80.75,39.24,45.36,0.62,0.77,0.12
4:23:52:3:561865,80.76,39.14,45.5,0.63,0.76,0.13
4:23:52:3:561930,80.82,39.22,45.66,0.63,0.76,0.13
4:23:52:3:562057,80.78,39.28,45.54,0.63,0.76,0.13
4:23:52:3:562250,81.07,38.99,45.89,0.63,0.77,0.11
4:23:52:3:562345,81.28,38.28,46.11,0.62,0.78,0.13
4:23:52:3:562457,81.35,38.06,46.18,0.62,0.77,0.12
4:23:52:3:562553,81.29,37.69,46.38,0.6,0.78,0.13
4:23:52:3:562649,81.58,37.16,46.72,0.6,0.79,0.11
4:23:52:4:562745,81.55,37.19,46.77,0.59,0.8,0.11
4:23:52:4:562841,81.39,37.54,46.5,0.6,0.78,0.13
4:23:52:4:563433,81.31,37.37,46.87,0.61,0.78,0.1
4:23:52:4:563544,81.27,37.39,46.94,0.59,0.79,0.13
4:23:52:4:563640,81.19,37.46,46.97,0.61,0.78,0.11
4:23:52:5:563752,80.99,37.87,46.76,0.6,0.79,0.12
4:23:52:5:563848,80.6,39.71,45.91,0.62,0.78,0.09
4:23:52:5:563944,79.14,43.47,43.81,0.7,0.69,0.15
4:23:52:5:564040,78.28,47.27,42.23,0.75,0.63,0.14
4:23:52:5:564248,77.09,51.81,39.44,0.79,0.58,0.14
4:23:52:5:564344,76.84,53.18,38.57,0.79,0.57,0.15
4:23:52:5:564440,76.27,55.21,37.33,0.82,0.54,0.15
4:23:52:5:564536,75.89,57.65,35.63,0.83,0.53,0.11
4:23:52:5:564648,74.44,60.45,33.13,0.88,0.4,0.21
4:23:52:6:564743,73.11,62.77,30.08,0.89,0.4,0.18
4:23:52:6:564855,72.3,65.01,27.9,0.92,0.35,0.16
4:23:52:6:565447,71.65,66.49,22.52,0.91,0.37,0.13
4:23:52:6:565558,71.8,66.16,22.17,0.91,0.36,0.16
4:23:52:6:565655,71.57,66.19,21.57,0.91,0.36,0.15
4:23:52:7:565750,71.1,66.2,20.86,0.9,0.36,0.15
4:23:52:7:565847,70.21,66.63,19.59,0.9,0.37,0.15
4:23:52:7:565943,68.56,67.67,17.26,0.95,0.3,0.17
4:23:52:7:566038,68.11,68.34,16.78,0.97,0.28,0.15
4:23:52:7:566231,65.92,68.98,12.65,0.96,0.27,0.18
4:23:52:7:566342,65.76,70.05,12.22,0.95,0.28,0.12
4:23:52:7:566438,64.92,70.36,11.22,0.9,0.28,0.17
4:23:52:7:566550,64.54,71.01,11.05,0.96,0.27,0.15
4:23:52:7:566647,63.75,71.79,10.72,0.97,0.21,0.15
4:23:52:8:566742,65.24,69.96,11.43,0.89,0.36,0.18
4:23:52:8:566853,64.34,70.09,10.95,0.93,0.3,0.15
4:23:52:8:567446,61.36,71.89,9.12,0.93,0.26,0.17
4:23:52:8:567541,59.68,71.98,7.94,0.94,0.23,0.21
4:23:52:8:567637,62.46,71.03,8.56,0.92,0.34,0.09
4:23:52:9:567749,64.26,70.16,10.07,0.93,0.29,0.17
4:23:52:9:567846,63.93,70.3,9.59,0.94,0.27,0.15
4:23:52:9:567941,64.77,69.5,10.14,0.93,0.31,0.15
4:23:52:9:568053,65.65,68.64,10.66,0.92,0.32,0.15
4:23:52:9:568245,67.82,66.26,12.53,0.9,0.38,0.16
4:23:52:9:568341,68.02,65.59,12.71,0.89,0.38,0.17
4:23:52:9:568437,69.46,64.5,13.46,0.87,0.43,0.15
4:23:52:9:568533,70.04,63.7,14.16,0.84,0.48,0.15
4:23:52:9:568644,70.2,63.58,14.4,0.87,0.43,0.11
4:23:52:10:568756,70.03,63.65,14.79,0.88,0.43,0.14
4:23:52:10:568852,69.39,64.12,15.17,0.88,0.42,0.15
4:23:52:10:569444,67.51,66.07,13.01,0.93,0.35,0.15
4:23:52:10:569540,68.03,65.45,13.44,0.87,0.43,0.13
4:23:52:10:569636,68.29,65.25,13.76,0.9,0.37,0.18
4:23:52:11:569731,70.03,64.42,14.54,0.86,0.45,0.11
4:23:52:11:569860,69.66,64.63,13.95,0.9,0.39,0.19
4:23:52:11:569955,70.65,64.25,15.14,0.9,0.4,0.17
4:23:52:11:570051,69.92,64.59,14.88,0.9,0.39,0.13
4:23:52:11:570244,69.7,64.42,15.2,0.88,0.41,0.15
4:23:52:11:570355,69.23,65.06,15.41,0.9,0.38,0.14
4:23:52:11:570451,68.06,65.88,14.7,0.91,0.36,0.16
4:23:52:11:570547,67.65,66.47,14.34,0.9,0.35,0.15
4:23:52:11:570643,67.98,66.93,14.61,0.91,0.36,0.14
4:23:52:12:570739,67.45,67.64,13.74,0.91,0.36,0.14
4:23:52:12:570835,67.4,67.58,12.54,0.87,0.43,0.14
4:23:52:12:571442,67.84,67.62,13.71,0.92,0.34,0.14
4:23:52:12:571538,68.55,67.04,14.14,0.9,0.37,0.14
4:23:52:12:571635,68.62,66.92,14.25,0.91,0.36,0.15
4:23:52:13:571762,68.61,66.97,14.26,0.91,0.36,0.14
4:23:52:13:571842,68.4,67.18,14.16,0.91,0.35,0.14
4:23:52:13:571938,68.26,67.28,14.06,0.91,0.35,0.14
4:23:52:13:572066,68.17,67.33,13.99,0.91,0.35,0.15
4:23:52:13:572258,67.87,67.4,13.83,0.91,0.35,0.15
4:23:52:13:572354,67.76,67.52,13.88,0.9,0.35,0.15
4:23:52:13:572450,67.28,68.05,13.49,0.92,0.34,0.14
4:23:52:13:572546,66.44,68.8,12.82,0.93,0.31,0.14
4:23:52:13:572657,66.16,68.68,12.1,0.92,0.33,0.15
4:23:52:14:572753,66.14,68.57,11.47,0.92,0.33,0.15
4:23:52:14:572850,66.33,68.41,11.28,0.92,0.33,0.14
4:23:52:14:573441,71.31,64.52,17.12,0.88,0.41,0.13
4:23:52:14:573537,71.16,64.64,17.23,0.9,0.39,0.14
4:23:52:14:573665,71.3,64.52,17.48,0.89,0.4,0.13
4:23:52:15:573761,71.48,64.24,17.63,0.88,0.42,0.14
4:23:52:15:573857,71.33,64.35,17.63,0.89,0.4,0.14
4:23:52:15:573953,71.21,64.54,17.57,0.89,0.4,0.13
4:23:52:15:574048,71.25,64.45,17.51,0.9,0.4,0.13
4:23:52:15:574256,72.56,61.82,17.73,0.86,0.46,0.14
4:23:52:15:574352,72.36,61.65,17.81,0.88,0.44,0.14
4:23:52:15:574448,72.05,61.79,17.66,0.87,0.44,0.14
4:23:52:15:574544,71.71,62.07,17.55,0.87,0.45,0.14
4:23:52:15:574656,71.05,62.86,17.33,0.89,0.41,0.15
4:23:52:16:574752,71.19,62.66,17.48,0.87,0.44,0.14
4:23:52:16:574848,71.35,62.6,17.81,0.88,0.43,0.14
4:23:52:16:575439,71.85,62.95,19.67,0.88,0.42,0.14
4:23:52:16:575551,71.82,63.12,19.66,0.88,0.43,0.13
4:23:52:16:575631,71.69,63.29,19.54,0.88,0.43,0.13
4:23:52:17:575744,71.22,63.73,19.29,0.89,0.41,0.14
4:23:52:17:575855,71.14,63.97,19.24,0.9,0.4,0.14
4:23:52:17:575951,71.55,63.09,19.02,0.88,0.44,0.14
4:23:52:17:576047,71.35,62.98,18.7,0.87,0.44,0.14
4:23:52:17:576239,69.33,64.84,16.59,0.89,0.4,0.16
4:23:52:17:576334,69.82,64.95,17.32,0.92,0.36,0.14
4:23:52:17:576446,70.8,62.85,17.43,0.86,0.44,0.15
4:23:52:17:576543,72.22,60.62,18.81,0.84,0.49,0.15
4:23:52:17:576638,72.63,59.86,19.98,0.87,0.45,0.14
4:23:52:18:576750,73.16,58.85,20.74,0.83,0.52,0.13
4:23:52:18:576862,73.14,58.89,21.16,0.84,0.49,0.15
4:23:52:18:577438,72.4,61.47,22.65,0.88,0.44,0.14
4:23:52:18:577533,72.77,60.76,23.5,0.86,0.47,0.15
4:23:52:18:577645,73.5,60.06,24.03,0.86,0.48,0.14
4:23:52:19:577742,73.5,60.04,23.94,0.85,0.48,0.12
4:23:52:19:577838,73.52,60.07,23.76,0.86,0.47,0.14
4:23:52:19:577933,73.57,60.12,23.59,0.85,0.47,0.14
4:23:52:19:578045,73.56,60.15,23.43,0.86,0.47,0.14
4:23:52:19:578237,73.67,60.0,23.26,0.86,0.47,0.14
4:23:52:19:578349,73.48,60.06,23.09,0.86,0.47,0.14
4:23:52:19:578445,73.34,60.04,22.9,0.86,0.46,0.15
4:23:52:19:578541,73.09,60.22,22.96,0.86,0.46,0.14
4:23:52:19:578637,72.96,60.13,23.01,0.86,0.47,0.14
4:23:52:20:578748,72.88,60.05,23.17,0.86,0.47,0.14
4:23:52:20:578845,72.93,59.78,23.35,0.85,0.47,0.14
4:23:52:20:579452,73.62,59.44,24.87,0.85,0.47,0.14
4:23:52:20:579548,73.64,59.52,24.95,0.86,0.47,0.13
4:23:52:20:579644,73.71,59.33,24.97,0.86,0.49,0.13
4:23:52:21:579740,73.52,59.47,24.89,0.85,0.49,0.14
4:23:52:21:579851,73.65,59.33,25.07,0.85,0.49,0.14
4:23:52:21:579948,73.62,59.36,25.21,0.85,0.48,0.15
4:23:52:21:580044,73.8,59.23,25.48,0.86,0.49,0.13
4:23:52:21:580252,73.54,59.8,25.41,0.85,0.48,0.14
4:23:52:21:580363,73.55,59.87,25.47,0.86,0.47,0.14
4:23:52:21:580459,73.71,59.79,25.6,0.85,0.48,0.14
4:23:52:21:580555,73.64,60.03,25.59,0.86,0.46,0.14
4:23:52:21:580651,73.69,60.04,25.68,0.85,0.48,0.14
4:23:52:22:580747,73.65,60.2,25.75,0.86,0.47,0.14
4:23:52:22:580859,73.59,60.38,25.7,0.86,0.47,0.13
4:23:52:22:581451,73.18,61.04,25.16,0.86,0.46,0.14
4:23:52:22:581546,73.15,61.0,25.12,0.86,0.46,0.14
4:23:52:22:581642,73.16,61.01,25.1,0.86,0.46,0.14
4:23:52:23:581739,73.14,61.09,25.08,0.87,0.45,0.14
4:23:52:23:581834,73.1,61.2,25.08,0.87,0.45,0.13
4:23:52:23:581946,73.08,61.15,25.0,0.86,0.46,0.14
4:23:52:23:582042,73.1,61.24,25.0,0.87,0.45,0.14
4:23:52:23:582234,73.23,61.11,25.18,0.87,0.46,0.14
4:23:52:23:582346,73.3,61.13,25.16,0.86,0.46,0.14
4:23:52:23:582458,73.3,61.32,25.02,0.87,0.44,0.14
4:23:52:23:582554,73.26,61.4,24.83,0.87,0.45,0.14
4:23:52:23:582650,73.19,61.5,24.68,0.87,0.45,0.13
4:23:52:24:582746,73.25,61.51,24.61,0.87,0.45,0.13
4:23:52:24:582842,73.18,61.54,24.48,0.87,0.45,0.14
4:23:52:24:583449,73.09,61.57,24.03,0.87,0.45,0.14
4:23:52:24:583545,73.15,61.52,24.0,0.87,0.44,0.14
4:23:52:24:583641,73.21,61.25,24.08,0.86,0.46,0.15
4:23:52:25:583737,73.32,61.32,24.2,0.87,0.45,0.14
4:23:52:25:583849,73.19,61.58,24.11,0.88,0.44,0.13
4:23:52:25:583945,73.22,61.33,23.98,0.86,0.46,0.14
4:23:52:25:584041,73.21,61.34,23.93,0.87,0.45,0.14
4:23:52:25:584264,73.04,61.43,23.67,0.87,0.45,0.14
4:23:52:25:584360,72.94,61.47,23.52,0.87,0.45,0.14
4:23:52:25:584456,72.95,61.43,23.47,0.87,0.45,0.13
4:23:52:25:584552,72.97,61.44,23.49,0.87,0.45,0.14
4:23:52:25:584648,72.99,61.41,23.46,0.87,0.45,0.14
4:23:52:26:584744,72.99,61.36,23.46,0.87,0.45,0.14
4:23:52:26:584840,72.97,61.36,23.41,0.87,0.45,0.14
4:23:52:26:585448,73.46,60.01,22.76,0.85,0.49,0.12
4:23:52:26:585543,72.64,60.72,22.77,0.87,0.44,0.15
4:23:52:26:585640,73.17,59.89,23.17,0.86,0.48,0.14
4:23:52:27:585751,73.21,58.89,23.27,0.84,0.48,0.14
4:23:52:27:585847,73.34,58.14,23.93,0.84,0.5,0.14
4:23:52:27:585943,73.64,57.13,23.71,0.83,0.51,0.15
4:23:52:27:586040,73.86,55.54,23.0,0.8,0.57,0.14
4:23:52:27:586231,73.41,55.44,22.85,0.8,0.56,0.15
4:23:52:27:586342,72.78,56.55,22.8,0.83,0.51,0.15
4:23:52:27:586440,72.22,57.25,22.48,0.82,0.52,0.16
4:23:52:27:586535,72.38,57.48,22.82,0.83,0.51,0.15
4:23:52:27:586662,72.17,57.48,22.74,0.83,0.52,0.18
4:23:52:28:586759,72.37,57.57,23.02,0.85,0.49,0.15
4:23:52:28:586855,72.49,57.27,23.23,0.83,0.52,0.15
4:23:52:28:587446,72.63,57.9,25.19,0.83,0.51,0.14
4:23:52:28:587542,72.63,58.18,25.22,0.84,0.5,0.15
4:23:52:28:587654,72.4,58.63,24.95,0.84,0.5,0.16
4:23:52:29:587750,72.19,59.33,25.04,0.86,0.47,0.15
4:23:52:29:587846,72.11,60.05,25.24,0.86,0.46,0.15
4:23:52:29:587942,72.23,60.42,25.32,0.86,0.46,0.15
4:23:52:29:588038,72.13,60.72,25.15,0.86,0.47,0.15
4:23:52:29:588229,71.87,61.35,24.26,0.86,0.45,0.15
4:23:52:29:588358,71.68,61.67,23.76,0.88,0.44,0.15
4:23:52:29:588453,71.67,61.84,23.46,0.87,0.43,0.15
4:23:52:29:588549,71.8,62.02,23.05,0.85,0.46,0.14
4:23:52:29:588646,71.09,63.16,22.8,0.9,0.38,0.16
4:23:52:30:588741,71.24,62.58,22.38,0.86,0.46,0.15
4:23:52:30:588837,71.21,63.22,22.34,0.88,0.42,0.14
4:23:52:30:589461,70.1,65.66,19.99,0.87,0.42,0.13
4:23:52:30:589557,69.66,68.7,20.59,1.0,0.24,0.07
4:23:52:30:589653,67.4,67.56,17.34,0.88,0.39,0.17
4:23:52:31:589749,69.29,68.97,20.42,0.95,0.3,0.13
4:23:52:31:589844,68.9,68.25,19.76,0.87,0.39,0.21
4:23:52:31:589956,70.87,69.11,21.78,0.94,0.31,0.08
4:23:52:31:590052,70.02,69.09,21.07,0.89,0.35,0.2
4:23:52:31:590244,70.53,68.34,21.33,0.91,0.35,0.15
4:23:52:31:590340,70.38,67.59,20.78,0.91,0.35,0.1
4:23:52:31:590436,69.58,68.1,19.63,0.93,0.32,0.13
4:23:52:31:590532,68.78,67.43,18.57,0.89,0.39,0.17
4:23:52:31:590660,68.62,68.55,18.67,0.93,0.31,0.14
4:23:52:32:590756,68.33,67.99,18.1,0.89,0.37,0.17
4:23:52:32:590852,68.58,68.22,18.66,0.93,0.32,0.12
4:23:52:32:591443,68.12,68.7,18.12,0.94,0.31,0.11
4:23:52:32:591539,67.94,67.66,17.58,0.9,0.36,0.13
4:23:52:32:591635,68.09,68.78,18.37,0.94,0.3,0.12
4:23:52:33:591731,68.08,67.61,17.95,0.85,0.41,0.2
4:23:52:33:591843,68.38,68.47,18.72,0.93,0.31,0.14
4:23:52:33:591955,68.48,68.91,18.89,0.93,0.32,0.13
4:23:52:33:592051,68.51,68.57,18.95,0.93,0.33,0.09
4:23:52:33:592258,67.92,67.31,17.09,0.84,0.44,0.21
4:23:52:33:592355,68.57,69.4,18.69,0.97,0.25,0.1
4:23:52:33:592450,68.85,68.29,17.95,0.87,0.39,0.2
4:23:52:33:592546,69.03,68.41,18.42,0.94,0.31,0.09
4:23:52:33:592643,68.92,69.2,18.3,0.94,0.31,0.1
4:23:52:34:592753,68.18,68.09,17.28,0.89,0.37,0.15
4:23:52:34:592849,68.49,69.58,18.34,0.96,0.27,0.11
4:23:52:34:593441,67.4,67.96,15.83,0.87,0.39,0.2
4:23:52:34:593538,67.31,68.54,16.07,0.93,0.3,0.13
4:23:52:34:593633,67.29,68.99,16.02,0.94,0.31,0.11
4:23:52:35:593761,66.54,68.31,14.67,0.9,0.36,0.14
4:23:52:35:593857,66.39,69.64,15.24,0.94,0.29,0.14
4:23:52:35:593954,66.85,68.93,15.26,0.91,0.35,0.17
4:23:52:35:594049,66.54,68.93,14.91,0.94,0.31,0.1
4:23:52:35:594257,65.56,67.91,12.91,0.87,0.39,0.19
4:23:52:35:594353,65.61,69.4,13.97,0.96,0.26,0.14
4:23:52:35:594449,65.93,68.27,13.5,0.89,0.36,0.16
4:23:52:35:594560,65.79,67.78,13.53,0.92,0.34,0.12
4:23:52:35:594640,65.65,68.53,13.92,0.94,0.31,0.13
4:23:52:36:594753,65.09,67.37,12.55,0.87,0.39,0.19
4:23:52:36:594848,65.41,68.86,13.96,0.94,0.28,0.14
4:23:52:36:595456,67.17,68.46,16.3,0.87,0.37,0.21
4:23:52:36:595553,68.59,69.38,19.29,0.94,0.31,0.07
4:23:52:36:595648,69.67,69.32,19.85,0.91,0.33,0.15
4:23:52:37:595760,69.16,67.85,18.72,0.91,0.37,0.07
4:23:52:37:595856,68.65,68.52,18.22,0.93,0.33,0.15
4:23:52:37:595952,69.4,67.94,19.0,0.9,0.38,0.12
4:23:52:37:596047,69.89,70.66,21.08,0.97,0.27,0.06
4:23:52:37:596256,69.46,70.17,19.52,0.96,0.27,0.1
4:23:52:37:596351,69.05,67.75,17.79,0.86,0.41,0.18
4:23:52:37:596447,68.66,69.65,17.9,0.99,0.24,0.08
4:23:52:37:596543,68.54,67.94,17.3,0.84,0.42,0.22
4:23:52:37:596639,68.08,70.12,17.81,0.99,0.22,0.08
4:23:52:38:596751,68.12,69.29,17.3,0.89,0.35,0.18
4:23:52:38:596847,68.27,69.75,18.61,0.95,0.29,0.08
4:23:52:38:597454,64.32,72.51,14.5,0.96,0.25,0.12
4:23:52:38:597566,66.02,70.61,15.88,0.87,0.36,0.16
4:23:52:38:597646,65.15,72.02,15.84,0.98,0.21,0.11
4:23:52:39:597742,66.23,71.28,16.43,0.89,0.34,0.16
4:23:52:39:597838,64.99,71.89,15.14,0.97,0.25,0.06
4:23:52:39:597950,63.26,72.07,12.29,0.94,0.29,0.13
4:23:52:39:598062,62.79,70.89,11.36,0.9,0.32,0.14
4:23:52:39:598254,64.9,71.14,14.05,0.87,0.34,0.21
4:23:52:39:598350,65.33,72.33,14.82,0.99,0.21,0.09
4:23:52:39:598446,65.11,71.35,14.05,0.95,0.26,0.14
4:23:52:39:598542,65.26,70.7,14.02,0.93,0.31,0.14
4:23:52:39:598653,65.64,71.68,14.87,0.94,0.27,0.11
4:23:52:40:598749,65.32,70.41,13.76,0.87,0.35,0.19
4:23:52:40:598845,64.91,71.79,13.63,0.97,0.23,0.11
4:23:52:40:599453,63.48,71.48,11.3,0.93,0.29,0.14
4:23:52:40:599549,62.83,71.42,10.57,0.95,0.26,0.12
4:23:52:40:599660,62.96,72.3,10.58,0.93,0.26,0.13
4:23:52:41:599757,62.02,70.66,9.02,0.86,0.36,0.24
4:23:52:41:599852,62.49,72.63,10.78,0.99,0.19,0.1
4:23:52:41:599949,63.5,71.16,11.39,0.91,0.32,0.15
4:23:52:41:600044,62.93,71.72,11.21,0.97,0.24,0.1
4:23:52:41:600252,62.08,71.18,9.51,0.9,0.31,0.2
4:23:52:41:600348,61.14,72.98,8.98,0.97,0.21,0.14
4:23:52:41:600444,61.3,73.28,9.04,0.93,0.27,0.12
4:23:52:41:600540,59.72,73.14,6.77,0.95,0.23,0.15
4:23:52:41:600636,58.57,72.73,5.12,0.93,0.24,0.18
4:23:52:42:600748,58.72,73.21,5.67,0.94,0.23,0.15
4:23:52:42:600843,58.91,74.27,6.52,0.96,0.2,0.15
4:23:52:42:601452,61.99,73.35,9.55,0.94,0.25,0.13
4:23:52:42:601547,60.37,73.73,7.52,0.95,0.23,0.14
4:23:52:42:601643,59.69,74.77,7.36,0.96,0.21,0.12
4:23:52:43:601754,60.27,74.44,7.83,0.93,0.24,0.13
4:23:52:43:601851,58.69,75.14,6.39,0.96,0.2,0.13
4:23:52:43:601931,58.08,75.23,5.87,0.95,0.21,0.13
4:23:52:43:602043,58.42,75.2,6.4,0.95,0.22,0.13
4:23:52:43:602251,58.24,75.8,6.38,0.95,0.21,0.12
4:23:52:43:602331,57.26,76.49,5.24,0.94,0.21,0.14
4:23:52:43:602459,55.47,77.86,3.39,0.96,0.16,0.11
4:23:52:43:602554,53.95,77.95,1.06,0.95,0.18,0.13
4:23:52:43:602651,50.89,78.16,-2.83,0.97,0.14,0.13
4:23:52:44:602746,49.24,78.72,-4.54,0.97,0.14,0.11
4:23:52:44:602843,48.49,78.29,-5.75,0.96,0.17,0.13
4:23:52:44:603450,35.39,80.37,-21.02,0.96,0.09,0.15
4:23:52:44:603546,35.71,80.23,-20.88,0.96,0.1,0.13
4:23:52:44:603658,35.18,80.27,-21.48,0.97,0.09,0.14
4:23:52:45:603753,34.16,80.49,-22.48,0.97,0.08,0.14
4:23:52:45:603865,33.3,80.7,-23.4,0.97,0.08,0.13
4:23:52:45:603961,33.17,80.67,-23.8,0.98,0.09,0.14
4:23:52:45:604058,33.6,80.99,-23.56,0.98,0.08,0.11
4:23:52:45:604250,41.02,80.14,-15.84,0.96,0.12,0.12
4:23:52:45:604345,46.99,79.73,-9.61,0.96,0.14,0.12
4:23:52:45:604457,52.73,78.97,-2.95,0.97,0.14,0.1
4:23:52:45:604553,55.62,77.16,-0.22,0.95,0.18,0.14
4:23:52:45:604649,57.03,76.5,1.43,0.96,0.19,0.1
4:23:52:46:604745,58.3,75.66,2.92,0.97,0.19,0.12
4:23:52:46:604856,60.36,74.01,5.2,0.95,0.23,0.14
4:23:52:46:605448,73.93,62.47,20.83,0.88,0.42,0.13
4:23:52:46:605560,73.86,62.23,21.14,0.87,0.45,0.14
4:23:52:46:605656,74.14,61.01,21.31,0.87,0.45,0.12
4:23:52:47:605752,73.6,60.3,20.89,0.87,0.45,0.15
4:23:52:47:605848,73.62,59.26,21.33,0.82,0.53,0.15
4:23:52:47:605944,73.52,59.32,21.68,0.88,0.44,0.13
4:23:52:47:606055,74.1,57.54,22.38,0.8,0.57,0.11
4:23:52:47:606263,75.07,55.52,24.05,0.81,0.56,0.12
4:23:52:47:606359,75.08,55.38,24.55,0.81,0.55,0.14
4:23:52:47:606456,75.46,55.57,25.24,0.82,0.55,0.13
4:23:52:47:606552,75.12,55.66,25.37,0.81,0.55,0.15
4:23:52:47:606648,74.64,56.11,25.29,0.84,0.5,0.15
4:23:52:48:606759,75.01,56.21,25.97,0.81,0.55,0.13
4:23:52:48:606855,74.19,57.34,25.89,0.83,0.53,0.11
4:23:52:48:607462,73.97,62.21,26.98,0.87,0.46,0.12
4:23:52:48:607559,73.65,63.36,26.64,0.89,0.42,0.12
4:23:52:48:607639,72.36,65.01,24.65,0.89,0.41,0.14
4:23:52:49:607735,70.38,67.36,22.08,0.92,0.35,0.14
4:23:52:49:607862,68.42,69.79,19.19,0.94,0.29,0.14
4:23:52:49:607958,67.38,70.63,18.09,0.93,0.28,0.12
4:23:52:49:608038,68.64,71.26,20.0,0.95,0.27,0.11
4:23:52:49:608246,68.87,71.99,21.83,0.95,0.27,0.11
4:23:52:49:608358,69.09,71.87,21.27,0.94,0.29,0.12
4:23:52:49:608454,69.34,71.76,21.05,0.93,0.29,0.13
4:23:52:49:608550,69.85,71.84,20.95,0.93,0.28,0.1
4:23:52:49:608646,70.19,72.12,20.85,0.94,0.27,0.13
4:23:52:50:608742,70.38,72.27,20.64,0.95,0.27,0.11
4:23:52:50:608854,70.51,71.88,20.65,0.94,0.27,0.1
4:23:52:50:609445,69.49,68.23,17.5,0.92,0.33,0.13
4:23:52:50:609557,69.87,67.24,17.48,0.9,0.37,0.13
4:23:52:50:609637,69.89,66.63,17.21,0.9,0.38,0.14
4:23:52:51:609749,69.84,66.26,17.13,0.9,0.37,0.14
4:23:52:51:609861,70.06,65.76,17.4,0.9,0.38,0.14
4:23:52:51:609957,70.2,65.6,17.68,0.91,0.37,0.14
4:23:52:51:610053,70.09,65.44,17.73,0.9,0.39,0.13
4:23:52:51:610277,70.14,65.17,17.85,0.9,0.39,0.14
4:23:52:51:610357,70.15,65.08,17.91,0.89,0.4,0.14
4:23:52:51:610452,70.07,65.13,17.97,0.9,0.39,0.14
4:23:52:51:610549,70.11,65.12,18.05,0.9,0.39,0.14
4:23:52:51:610644,70.08,65.15,18.09,0.9,0.39,0.14
4:23:52:52:610756,69.95,65.23,18.07,0.89,0.39,0.14
4:23:52:52:610852,69.93,65.34,18.13,0.9,0.38,0.14
4:23:52:52:611444,70.07,65.14,18.79,0.89,0.39,0.14
4:23:52:52:611555,70.06,65.13,18.78,0.9,0.38,0.14
4:23:52:52:611652,70.09,65.07,18.83,0.9,0.39,0.14
4:23:52:53:611763,70.06,65.06,18.8,0.9,0.39,0.14
4:23:52:53:611859,70.05,65.12,18.78,0.89,0.39,0.14
4:23:52:53:611955,70.09,65.16,18.82,0.9,0.39,0.14
4:23:52:53:612051,70.07,65.15,18.79,0.89,0.39,0.14
4:23:52:53:612259,69.96,65.23,18.5,0.9,0.38,0.14
4:23:52:53:612355,69.93,65.01,18.28,0.89,0.39,0.14
4:23:52:53:612451,69.91,64.88,18.16,0.89,0.39,0.15
4:23:52:53:612547,69.83,64.93,18.1,0.89,0.39,0.14
4:23:52:53:612658,69.61,65.18,17.88,0.9,0.37,0.15
4:23:52:54:612755,69.73,64.86,17.94,0.89,0.39,0.15
4:23:52:54:612851,69.94,64.68,18.21,0.89,0.4,0.14
4:23:52:54:613458,69.57,64.95,18.83,0.89,0.39,0.14
4:23:52:54:613554,69.57,64.93,18.87,0.89,0.39,0.14
4:23:52:54:613650,69.54,64.98,18.96,0.89,0.39,0.14
4:23:52:55:613762,69.54,64.99,19.04,0.89,0.39,0.15
4:23:52:55:613858,69.57,64.98,19.1,0.89,0.39,0.14
4:23:52:55:613954,69.52,65.04,19.08,0.89,0.39,0.14
4:23:52:55:614050,69.44,65.07,19.06,0.89,0.39,0.14
4:23:52:55:614258,69.39,65.17,19.09,0.9,0.39,0.14
4:23:52:55:614354,69.39,65.18,19.09,0.9,0.38,0.14
4:23:52:55:614449,69.54,65.06,19.15,0.89,0.39,0.15
4:23:52:55:614546,70.06,64.83,19.35,0.89,0.39,0.13
4:23:52:55:614657,70.15,64.77,19.31,0.89,0.4,0.13
4:23:52:56:614754,69.91,65.58,18.71,0.88,0.39,0.15
4:23:52:56:614849,70.69,67.61,19.81,0.93,0.31,0.11
4:23:52:56:615457,104.61,60.59,37.47,0.83,0.48,-0.15
4:23:52:56:615553,105.19,59.98,38.95,0.88,0.49,-0.18
4:23:52:56:615649,105.81,59.23,40.63,0.97,0.55,-0.22
4:23:52:57:615761,109.5,56.73,44.32,0.84,0.59,-0.28
4:23:52:57:615856,104.18,56.35,42.54,0.83,0.55,-0.12
4:23:52:57:615952,97.26,56.11,38.18,0.77,0.57,-0.12
4:23:52:57:616064,91.0,57.09,33.82,0.85,0.55,-0.01
4:23:52:57:616256,81.49,59.87,29.8,0.87,0.55,0.01
4:23:52:57:616352,80.22,60.88,29.28,0.86,0.48,0.08
4:23:52:57:616448,80.03,60.63,28.87,0.83,0.47,0.06
4:23:52:57:616560,80.56,60.87,29.04,0.86,0.49,0.07
4:23:52:57:616656,82.02,60.78,29.95,0.86,0.51,0.05
4:23:52:58:616752,82.28,60.38,30.14,0.83,0.49,0.04
4:23:52:58:616848,82.3,60.41,31.01,0.85,0.47,0.07
4:23:52:58:617455,69.29,70.03,17.86,0.94,0.28,0.09
4:23:52:58:617535,53.0,76.07,3.51,0.95,0.21,0.14
4:23:52:58:617663,32.38,79.78,-15.05,0.97,0.14,0.13
4:23:52:59:617759,15.36,82.77,-31.15,0.98,0.08,0.22
4:23:52:59:617870,6.84,86.38,-41.37,0.98,0.02,0.08
4:23:52:59:617951,143.8,87.95,97.36,0.18,0.32,0.3
4:23:52:59:618063,129.49,87.35,82.17,0.98,0.04,-0.04
4:23:52:59:618255,104.12,82.64,55.57,0.98,0.13,-0.03
4:23:52:59:618351,101.34,80.71,53.1,0.98,0.2,-0.0
4:23:52:59:618463,101.57,80.64,52.72,0.97,0.18,-0.04
4:23:52:59:618542,102.14,80.64,52.72,0.97,0.17,-0.03
4:23:52:59:618654,102.43,80.6,52.51,0.97,0.16,-0.03
4:23:53:0:618750,102.71,80.61,52.33,0.97,0.15,-0.04
4:23:53:0:618846,102.86,80.61,52.03,0.97,0.15,-0.03
4:23:53:0:619454,102.95,80.71,50.31,0.98,0.14,-0.04
4:23:53:0:619550,102.83,80.73,50.02,0.98,0.15,-0.03
4:23:53:0:619662,102.84,80.74,49.82,0.97,0.15,-0.03
4:23:53:1:619757,102.85,80.76,49.67,0.98,0.15,-0.04
4:23:53:1:619853,102.82,80.78,49.5,0.97,0.15,-0.03
4:23:53:1:619950,102.71,80.78,49.24,0.97,0.15,-0.03
4:23:53:1:620061,102.7,80.8,49.07,0.97,0.15,-0.04
4:23:53:1:620253,102.69,80.81,48.86,0.98,0.15,-0.04
4:23:53:1:620349,105.02,81.19,49.81,1.06,0.07,-0.2
4:23:53:1:620461,104.83,81.24,46.71,1.07,0.08,0.0
4:23:53:1:620557,102.64,81.1,44.28,0.98,0.11,-0.05
4:23:53:1:620637,102.38,81.08,44.22,0.96,0.18,-0.03
4:23:53:2:620748,102.17,81.08,44.18,0.98,0.13,-0.03
4:23:53:2:620861,102.04,81.08,44.22,0.97,0.16,-0.04
4:23:53:2:621452,90.48,72.42,36.42,1.05,0.25,-0.04
4:23:53:2:621564,87.02,60.19,42.83,0.84,0.45,-0.2
4:23:53:2:621662,84.76,50.27,46.03,0.72,0.66,0.1
4:23:53:3:621756,81.36,36.2,50.67,0.56,0.87,0.05
4:23:53:3:621852,82.22,24.98,56.61,0.43,0.96,0.15
4:23:53:3:621963,85.72,21.26,60.47,0.35,0.96,0.16
4:23:53:3:622060,88.48,18.27,64.76,0.34,1.06,-0.01
4:23:53:3:622252,92.06,12.89,73.36,0.12,0.97,-0.03
4:23:53:3:622363,92.21,12.2,79.34,0.09,1.03,-0.02
4:23:53:3:622460,91.21,9.47,84.74,-0.0,0.95,0.05
4:23:53:3:622555,89.83,6.88,89.37,0.01,1.05,-0.02
4:23:53:3:622651,91.48,7.76,92.27,0.02,1.01,-0.15
4:23:53:4:622763,91.01,6.06,97.82,-0.12,1.2,0.0
4:23:53:4:622859,91.46,0.12,103.55,-0.18,1.31,0.17
4:23:53:4:623450,138.11,-41.8,115.23,-0.59,0.46,-0.45
4:23:53:4:623548,142.09,-47.15,117.76,-0.7,0.33,-0.46
4:23:53:4:623643,144.03,-52.08,122.01,-0.82,0.27,-0.45
4:23:53:5:623754,144.94,-53.67,125.23,-0.77,0.33,-0.49
4:23:53:5:623850,145.09,-57.53,126.25,-0.79,0.24,-0.42
4:23:53:5:623946,135.78,-64.36,132.82,-0.85,0.34,-0.16
4:23:53:5:624043,106.42,-73.02,159.76,-0.99,0.24,0.12
4:23:53:5:624234,58.79,-72.2,-152.45,-1.03,0.03,0.47
4:23:53:5:624362,53.01,-70.97,-149.1,-0.97,0.02,0.54
4:23:53:5:624458,42.01,-70.28,-144.25,-0.89,0.16,0.45
4:23:53:5:624554,29.53,-67.78,-138.91,-0.85,0.11,0.54
4:23:53:5:624650,23.24,-64.48,-139.81,-0.87,0.14,0.49
4:23:53:6:624746,17.07,-60.77,-139.72,-0.91,0.13,0.58
4:23:53:6:624858,11.92,-59.21,-141.04,-0.78,0.06,0.6
4:23:53:6:625433,10.02,-52.69,-162.19,-0.81,0.26,0.59
4:23:53:6:625545,16.95,-55.78,-166.06,-0.91,0.22,0.59
4:23:53:6:625641,23.73,-59.35,-170.53,-0.81,0.3,0.29
4:23:53:7:625752,28.4,-60.49,-173.92,-0.87,0.3,0.4
4:23:53:7:625849,31.63,-61.27,-174.85,-0.9,0.34,0.39
4:23:53:7:625945,32.68,-62.65,-173.73,-0.86,0.3,0.36
4:23:53:7:626041,32.43,-62.52,-170.88,-0.85,0.28,0.32
4:23:53:7:626248,29.49,-59.78,-163.11,-0.91,0.27,0.43
4:23:53:7:626360,28.95,-59.07,-161.51,-0.86,0.34,0.44
4:23:53:7:626456,30.0,-58.2,-160.0,-0.83,0.37,0.47
4:23:53:7:626552,30.34,-57.37,-155.29,-0.82,0.41,0.47
4:23:53:7:626664,31.82,-57.15,-148.66,-0.81,0.41,0.51
4:23:53:8:626744,34.14,-56.2,-141.34,-0.76,0.34,0.48
4:23:53:8:626856,33.07,-55.74,-131.86,-0.78,0.31,0.5
4:23:53:8:627448,26.87,-55.66,-92.07,-0.85,0.18,0.49
4:23:53:8:627544,23.21,-56.09,-87.26,-0.84,0.25,0.56
4:23:53:8:627640,22.04,-56.71,-84.23,-0.82,0.29,0.53
4:23:53:9:627751,25.76,-58.41,-84.18,-0.86,0.29,0.66
4:23:53:9:627847,22.96,-62.37,-79.7,-0.78,0.4,0.74
4:23:53:9:627943,16.94,-65.91,-71.53,-0.63,0.42,0.43
4:23:53:9:628055,17.65,-67.11,-66.91,-0.54,0.3,0.43
4:23:53:9:628247,5.49,-58.21,-52.95,-0.8,0.4,0.67
4:23:53:9:628343,5.43,-58.68,-56.09,-0.79,0.44,0.71
4:23:53:9:628455,7.43,-63.42,-59.11,-0.77,0.42,0.62
4:23:53:9:628551,0.79,-65.6,-54.19,-0.77,0.45,0.89
4:23:53:9:628662,-2.89,-69.29,-48.79,-0.63,0.36,0.7
4:23:53:10:628743,1.38,-67.88,-47.81,-0.54,0.3,0.65
4:23:53:10:628838,0.44,-70.37,-40.13,-0.63,0.27,0.5
4:23:53:10:629446,8.78,-68.86,-29.22,-0.54,0.55,0.36
4:23:53:10:629542,-1.73,-72.96,-19.66,-0.46,0.73,0.42
4:23:53:10:629638,5.35,-76.1,-25.24,-0.57,0.79,0.68
4:23:53:11:629750,-9.17,-76.07,-11.16,-0.32,1.13,0.95
4:23:53:11:629845,-16.5,-66.88,2.94,-0.34,0.69,0.52
4:23:53:11:629942,-19.3,-60.2,15.83,-0.32,0.6,0.49
4:23:53:11:630038,-16.96,-50.76,24.49,-0.5,0.86,0.4
4:23:53:11:630246,-7.17,-37.22,43.13,-0.61,0.6,0.36
4:23:53:11:630357,2.06,-38.36,48.77,-0.72,0.55,0.43
4:23:53:11:630453,4.3,-38.44,58.36,-0.91,0.64,0.52
4:23:53:11:630550,7.8,-41.15,64.18,-0.83,0.59,0.42
4:23:53:11:630661,15.33,-42.94,67.29,-0.84,0.4,0.48
4:23:53:12:630758,17.76,-44.26,74.44,-0.76,0.47,0.37
4:23:53:12:630853,18.39,-45.52,82.56,-0.71,0.55,0.3
4:23:53:12:631445,33.82,-57.86,110.45,-0.86,0.57,0.28
4:23:53:12:631541,27.68,-69.08,113.49,-0.85,0.59,0.24
4:23:53:12:631637,4.33,-80.09,130.52,-0.86,0.6,0.25
4:23:53:13:631732,-89.13,-83.83,-142.45,-0.92,0.5,0.17
4:23:53:13:631844,-139.04,-79.57,-97.62,-0.86,0.37,0.11
4:23:53:13:631957,-147.85,-72.08,-95.53,-0.78,0.44,-0.01
4:23:53:13:632052,-151.68,-67.24,-98.26,-0.77,0.54,-0.16
4:23:53:13:632260,-141.18,-69.68,-120.04,-0.58,1.02,-0.37
4:23:53:13:632357,-122.48,-71.34,-135.4,-0.65,0.82,-0.27
4:23:53:13:632452,-98.07,-80.87,-153.34,-0.67,0.77,-0.11
4:23:53:13:632548,-35.2,-77.73,151.83,-0.78,0.7,-0.01
4:23:53:13:632644,-11.1,-71.93,136.71,-0.78,0.68,0.1
4:23:53:14:632741,4.63,-68.6,131.77,-0.81,0.63,0.05
4:23:53:14:632851,14.55,-65.07,132.39,-0.83,0.59,0.19
4:23:53:14:633443,27.0,-43.71,150.02,-0.73,0.7,0.43
4:23:53:14:633540,24.16,-38.73,155.29,-0.63,0.76,0.56
4:23:53:14:633635,20.64,-32.99,160.26,-0.52,0.73,0.57
4:23:53:15:633747,19.19,-30.24,164.33,-0.47,0.74,0.53
4:23:53:15:633859,13.28,-31.67,171.43,-0.53,0.5,0.6
4:23:53:15:633955,6.06,-34.23,176.37,-0.63,0.43,0.63
4:23:53:15:634067,6.23,-37.21,176.17,-0.68,0.46,0.66
4:23:53:15:634242,21.12,-42.22,166.77,-0.66,0.37,0.63
4:23:53:15:634340,17.31,-41.35,168.3,-0.74,0.4,0.68
4:23:53:15:634450,18.72,-43.53,165.07,-0.68,0.44,0.64
4:23:53:15:634546,23.38,-46.22,160.1,-0.64,0.49,0.56
4:23:53:15:634642,27.57,-47.16,158.27,-0.66,0.49,0.55
4:23:53:16:634738,30.05,-47.55,160.66,-0.69,0.44,0.54
4:23:53:16:634850,28.63,-47.49,166.48,-0.64,0.6,0.54
4:23:53:16:635441,44.77,-39.36,-154.21,-0.7,0.45,0.46
4:23:53:16:635538,43.42,-40.03,-147.41,-0.76,0.49,0.45
4:23:53:16:635649,42.57,-41.11,-145.04,-0.74,0.53,0.52
4:23:53:17:635745,43.1,-42.5,-145.06,-0.7,0.49,0.54
4:23:53:17:635841,43.84,-43.11,-145.69,-0.72,0.43,0.61
4:23:53:17:635937,45.09,-42.78,-147.04,-0.77,0.35,0.7
4:23:53:17:636049,44.47,-44.02,-148.54,-0.7,0.35,0.56
4:23:53:17:636257,42.8,-45.27,-150.34,-0.63,0.42,0.54
4:23:53:17:636353,43.67,-44.68,-150.46,-0.71,0.48,0.59
4:23:53:17:636449,44.6,-44.09,-149.35,-0.76,0.49,0.58
4:23:53:17:636560,46.61,-44.95,-150.97,-0.61,0.55,0.47
4:23:53:17:636656,48.3,-44.02,-150.53,-0.68,0.46,0.56
4:23:53:18:636753,46.79,-43.32,-149.69,-0.67,0.58,0.5
4:23:53:18:636848,47.08,-42.74,-149.6,-0.69,0.54,0.54
4:23:53:18:637456,46.22,-41.99,-158.45,-0.65,0.56,0.54
4:23:53:18:637552,46.76,-41.94,-159.91,-0.67,0.54,0.55
4:23:53:18:637648,47.53,-42.42,-161.52,-0.66,0.54,0.51
4:23:53:19:637744,47.11,-43.32,-161.92,-0.72,0.45,0.53
4:23:53:19:637840,45.86,-43.96,-164.36,-0.69,0.48,0.5
4:23:53:19:637952,45.37,-44.26,-169.66,-0.6,0.41,0.53
4:23:53:19:638032,42.24,-43.08,-172.72,-0.69,0.21,0.72
4:23:53:19:638239,28.55,-40.48,177.13,-0.71,0.36,0.78
4:23:53:19:638335,27.98,-39.14,171.11,-0.67,0.34,0.76
4:23:53:19:638431,30.44,-39.07,163.82,-0.66,0.33,0.72
4:23:53:19:638543,31.49,-40.49,160.28,-0.71,0.25,0.68
4:23:53:19:638639,30.83,-43.28,157.87,-0.63,0.28,0.69
4:23:53:20:638735,24.37,-43.52,158.83,-0.57,0.41,0.65
4:23:53:20:638847,19.33,-42.88,157.05,-0.63,0.5,0.7
4:23:53:20:639455,-6.56,-44.96,156.74,-0.66,0.24,0.65
4:23:53:20:639550,-4.84,-45.03,154.14,-0.62,0.29,0.84
4:23:53:20:639646,-4.79,-42.51,156.61,-0.68,0.17,0.86
4:23:53:21:639742,-11.01,-40.59,164.99,-0.65,0.2,0.81
4:23:53:21:639855,-10.66,-40.02,171.19,-0.5,0.22,0.78
4:23:53:21:639966,-11.84,-38.11,178.0,-0.6,0.09,0.6
4:23:53:21:640046,-10.79,-35.74,-178.85,-0.76,0.16,0.75
4:23:53:21:640254,-9.51,-37.14,-172.79,-0.7,0.12,0.64
4:23:53:21:640350,-10.14,-36.86,-169.85,-0.69,0.1,0.62
4:23:53:21:640446,-8.1,-36.73,-168.37,-0.7,0.0,0.54
4:23:53:21:640542,-8.66,-35.45,-167.79,-0.82,0.06,0.58
4:23:53:21:640638,-15.26,-36.45,-165.08,-0.81,0.35,0.96
4:23:53:22:640749,-22.51,-40.08,-159.01,-0.54,0.35,1.0
4:23:53:22:640861,-24.75,-40.64,-157.97,-0.42,0.23,0.71
4:23:53:22:641453,-4.17,-30.5,-140.54,-0.61,0.2,0.96
4:23:53:22:641549,0.03,-28.47,-131.96,-0.48,0.16,1.07
4:23:53:22:641645,4.78,-25.9,-125.23,-0.48,0.13,0.95
4:23:53:23:641756,6.65,-24.21,-120.3,-0.54,0.14,0.77
4:23:53:23:641852,8.75,-23.34,-116.82,-0.59,0.13,0.71
4:23:53:23:641948,11.55,-24.04,-115.27,-0.66,0.18,0.76
4:23:53:23:642060,13.14,-27.35,-115.18,-0.65,0.24,0.73
4:23:53:23:642252,16.88,-33.98,-115.33,-0.66,0.28,1.07
4:23:53:23:642348,18.38,-38.4,-116.27,-0.49,0.26,0.81
4:23:53:23:642444,17.74,-39.78,-118.36,-0.4,0.26,0.53
4:23:53:23:642540,15.44,-37.69,-117.91,-0.63,0.27,0.54
4:23:53:23:642637,14.32,-38.14,-120.06,-0.59,0.35,0.69
4:23:53:24:642747,16.65,-37.29,-122.5,-0.66,0.34,0.69
4:23:53:24:642860,18.01,-37.36,-124.83,-0.69,0.36,0.78
4:23:53:24:643451,21.96,-38.61,-118.01,-0.75,0.24,0.65
4:23:53:24:643547,20.87,-40.81,-115.19,-0.68,0.25,0.67
4:23:53:24:643643,19.62,-42.86,-113.48,-0.66,0.33,0.73
4:23:53:25:643739,15.71,-43.9,-110.28,-0.61,0.39,0.91
4:23:53:25:643851,13.0,-44.79,-106.7,-0.46,0.38,0.81
4:23:53:25:643947,11.83,-46.77,-102.49,-0.35,0.32,0.71
4:23:53:25:644043,10.41,-45.86,-96.46,-0.4,0.27,0.74
4:23:53:25:644251,9.69,-41.76,-89.06,-0.51,0.31,0.79
4:23:53:25:644362,11.6,-41.06,-88.19,-0.47,0.26,0.9
4:23:53:25:644458,13.75,-42.11,-88.88,-0.4,0.33,1.2
4:23:53:25:644554,16.38,-41.62,-88.27,-0.45,0.3,1.01
4:23:53:25:644651,19.0,-42.21,-87.07,-0.49,0.31,0.81
4:23:53:26:644747,19.27,-43.77,-83.32,-0.49,0.25,0.77
4:23:53:26:644842,22.88,-42.04,-81.05,-0.56,0.07,0.75
4:23:53:26:645434,17.86,-42.25,-122.48,-0.47,0.33,0.79
4:23:53:26:645545,15.03,-40.23,-131.1,-0.53,0.34,0.88
4:23:53:26:645658,16.53,-40.54,-142.34,-0.55,0.32,0.88
4:23:53:27:645754,19.41,-40.37,-152.48,-0.55,0.23,0.83
4:23:53:27:645850,20.21,-38.61,-158.41,-0.61,0.17,0.8
4:23:53:27:645946,21.47,-38.04,-161.97,-0.57,0.14,0.76
4:23:53:27:646041,20.2,-38.57,-161.64,-0.62,0.12,0.73
4:23:53:27:646249,14.51,-39.82,-153.97,-0.63,0.16,0.75
4:23:53:27:646345,11.9,-38.71,-149.7,-0.61,0.2,0.75
4:23:53:27:646441,11.85,-37.43,-148.01,-0.61,0.22,0.74
4:23:53:27:646537,13.63,-36.73,-147.92,-0.62,0.19,0.74
4:23:53:27:646649,13.99,-35.88,-146.84,-0.63,0.2,0.79
4:23:53:28:646761,14.99,-35.7,-146.54,-0.6,0.2,0.81
4:23:53:28:646841,14.87,-36.49,-146.1,-0.59,0.17,0.74
4:23:53:28:647448,12.31,-37.29,-138.18,-0.54,0.28,0.86
4:23:53:28:647560,12.68,-37.23,-132.34,-0.53,0.31,0.76
4:23:53:28:647656,16.49,-36.87,-125.79,-0.58,0.22,0.78
4:23:53:29:647752,18.02,-37.27,-116.08,-0.64,0.14,0.8
4:23:53:29:647848,17.38,-39.43,-106.82,-0.59,0.2,0.75
4:23:53:29:647944,15.42,-41.9,-96.56,-0.58,0.22,0.77
4:23:53:29:648040,14.19,-41.35,-86.42,-0.61,0.18,0.8
4:23:53:29:648248,15.97,-41.15,-80.32,-0.7,0.14,0.85
4:23:53:29:648344,16.13,-42.78,-81.15,-0.58,0.17,0.77
4:23:53:29:648440,14.65,-43.78,-81.31,-0.57,0.15,0.69
4:23:53:29:648552,13.73,-43.97,-83.07,-0.64,0.11,0.64
4:23:53:29:648647,14.72,-42.45,-87.17,-0.69,0.18,0.86
4:23:53:30:648744,15.33,-41.94,-90.99,-0.65,0.18,0.83
4:23:53:30:648855,14.09,-42.18,-94.14,-0.6,0.2,0.76
4:23:53:30:649447,18.75,-36.87,-125.67,-0.58,0.07,0.79
4:23:53:30:649543,18.76,-35.24,-135.59,-0.59,0.12,0.82
4:23:53:30:649655,17.39,-35.29,-143.47,-0.55,0.19,0.85
4:23:53:31:649751,10.04,-37.23,-142.18,-0.56,0.19,0.91
4:23:53:31:649847,5.8,-39.29,-144.35,-0.52,0.26,0.92
4:23:53:31:649942,9.24,-39.44,-151.75,-0.45,0.28,0.83
4:23:53:31:650038,11.68,-37.64,-157.2,-0.51,0.3,0.76
4:23:53:31:650246,15.61,-37.31,-164.09,-0.64,0.23,0.67
4:23:53:31:650342,16.23,-38.43,-165.66,-0.69,0.22,0.68
4:23:53:31:650438,17.21,-40.03,-167.56,-0.72,0.25,0.7
4:23:53:31:650550,18.21,-43.75,-167.94,-0.74,0.14,0.9
4:23:53:31:650646,16.01,-45.0,-169.22,-0.59,0.19,0.73
4:23:53:32:650757,17.29,-46.81,-174.29,-0.59,0.1,0.66
4:23:53:32:650854,17.06,-44.43,-177.98,-0.71,0.15,0.78
4:23:53:32:651461,13.89,-40.11,-170.55,-0.98,0.08,0.65
4:23:53:32:651557,13.64,-43.4,-173.14,-0.41,0.36,0.83
4:23:53:32:651637,12.18,-44.85,-172.46,-0.59,0.11,0.52
4:23:53:33:651765,8.76,-43.14,-170.36,-0.63,0.26,0.66
4:23:53:33:651845,4.56,-39.15,-165.9,-0.66,0.41,0.84
4:23:53:33:651957,1.69,-39.52,-156.99,-0.53,0.16,0.82
4:23:53:33:652053,4.52,-38.01,-153.27,-0.61,-0.07,0.77
4:23:53:33:652245,5.57,-38.02,-155.25,-0.66,0.24,0.75
4:23:53:33:652356,7.64,-39.43,-154.37,-0.7,0.19,0.59
4:23:53:33:652453,10.13,-39.67,-152.57,-0.72,0.17,0.64
4:23:53:33:652549,12.56,-38.31,-150.74,-0.63,0.21,0.63
4:23:53:33:652645,12.79,-34.68,-146.22,-0.73,0.21,0.67
4:23:53:34:652741,11.21,-32.59,-141.6,-0.74,0.34,0.77
4:23:53:34:652837,12.15,-35.43,-136.75,-0.65,0.34,0.63
4:23:53:34:653444,16.84,-35.79,-122.76,-0.57,0.21,0.74
4:23:53:34:653555,17.02,-35.23,-126.04,-0.55,0.26,0.79
4:23:53:34:653652,19.24,-37.49,-130.02,-0.51,0.28,0.87
4:23:53:35:653748,20.27,-39.99,-131.79,-0.51,0.18,0.91
4:23:53:35:653844,12.49,-34.68,-123.46,-0.94,0.25,0.66
4:23:53:35:653955,16.71,-38.38,-122.67,-0.5,0.01,0.8
4:23:53:35:654035,17.32,-37.43,-119.72,-0.57,0.18,0.96
4:23:53:35:654259,15.06,-41.91,-119.11,-0.6,0.41,0.74
4:23:53:35:654339,23.8,-44.04,-121.47,-0.59,0.18,0.65
4:23:53:35:654436,26.25,-44.59,-119.87,-0.6,0.17,0.63
4:23:53:35:654547,23.31,-43.32,-117.11,-0.65,0.22,0.72
4:23:53:35:654659,18.98,-41.4,-115.96,-0.64,0.31,0.77
4:23:53:36:654755,14.76,-40.55,-114.47,-0.74,0.39,0.66
4:23:53:36:654851,12.82,-40.99,-113.06,-0.75,0.27,0.86
4:23:53:36:655442,8.62,-60.7,-109.46,-0.83,-0.01,0.83
4:23:53:36:655538,15.46,-67.83,-115.22,-0.75,0.03,0.61
4:23:53:36:655650,29.4,-73.89,-130.99,-0.88,0.05,0.29
4:23:53:37:655778,72.51,-77.45,-175.12,-0.7,0.01,0.13
4:23:53:37:655858,95.14,-69.97,164.82,-0.7,0.13,0.12
4:23:53:37:655954,98.84,-60.47,158.11,-0.7,0.53,0.24
4:23:53:37:656050,91.44,-53.17,159.89,-0.75,0.7,0.15
4:23:53:37:656242,92.25,-42.55,156.33,-0.65,0.61,0.11
4:23:53:37:656353,90.66,-35.5,157.27,-0.64,0.82,0.07
4:23:53:37:656450,92.58,-31.89,154.86,-0.53,0.82,0.14
4:23:53:37:656545,92.38,-27.69,156.47,-0.42,0.89,-0.01
4:23:53:37:656641,92.57,-23.98,155.92,-0.47,0.84,0.03
4:23:53:38:656753,91.11,-21.34,155.63,-0.48,0.97,0.03
4:23:53:38:656849,94.66,-18.16,154.3,-0.37,0.83,-0.12
4:23:53:38:657441,86.94,-6.58,156.8,-0.12,1.06,0.08
4:23:53:38:657537,86.58,-2.86,156.06,-0.07,1.08,0.07
4:23:53:38:657633,89.29,0.77,155.21,0.05,1.17,0.07
4:23:53:39:657744,89.31,1.97,154.29,0.09,1.0,-0.07
4:23:53:39:657856,89.17,1.79,153.42,0.06,1.0,-0.03
4:23:53:39:657968,89.41,0.27,152.12,0.02,1.0,0.0
4:23:53:39:658049,89.39,-1.09,151.04,-0.02,0.98,0.01
4:23:53:39:658240,89.26,-6.36,150.79,-0.07,1.01,-0.0
4:23:53:39:658352,89.08,-15.41,153.17,-0.33,1.06,-0.01
4:23:53:39:658432,89.28,-15.18,152.97,-0.25,0.98,-0.0
4:23:53:39:658544,89.64,-13.06,152.69,-0.17,0.98,-0.01
4:23:53:39:658640,89.85,-15.12,152.43,-0.29,1.0,-0.01
4:23:53:40:658752,90.07,-14.61,152.21,-0.22,0.98,-0.02
4:23:53:40:658864,90.24,-14.41,151.96,-0.2,0.97,-0.02
4:23:53:40:659455,90.96,-29.75,148.72,-0.52,0.91,0.08
4:23:53:40:659551,91.1,-29.61,148.85,-0.48,0.89,-0.01
4:23:53:40:659647,91.25,-29.52,149.24,-0.51,0.88,-0.02
4:23:53:41:659743,91.46,-30.15,148.56,-0.44,0.86,-0.05
4:23:53:41:659839,91.64,-35.04,147.64,-0.52,0.72,-0.03
4:23:53:41:659950,91.71,-34.88,148.47,-0.58,0.85,-0.02
4:23:53:41:660047,91.75,-34.81,149.21,-0.58,0.84,-0.02
4:23:53:41:660239,91.78,-34.72,150.52,-0.58,0.83,-0.02
4:23:53:41:660366,91.79,-34.68,151.09,-0.58,0.84,-0.02
4:23:53:41:660447,91.78,-34.66,151.59,-0.58,0.84,-0.02
4:23:53:41:660558,91.77,-34.64,152.07,-0.58,0.84,-0.02
4:23:53:41:660654,91.74,-34.64,152.29,-0.57,0.83,-0.0
4:23:53:42:660750,91.69,-34.64,152.45,-0.57,0.83,-0.01
4:23:53:42:660847,91.68,-34.65,152.68,-0.58,0.84,-0.01
4:23:53:42:661438,91.58,-34.66,153.84,-0.58,0.83,-0.01
4:23:53:42:661534,91.57,-34.66,153.97,-0.57,0.84,-0.02
4:23:53:42:661661,91.56,-34.67,154.07,-0.58,0.83,-0.01
4:23:53:43:661757,91.55,-34.68,154.21,-0.58,0.84,-0.02
4:23:53:43:661853,91.55,-34.67,154.31,-0.58,0.84,-0.02
4:23:53:43:661949,91.54,-34.68,154.42,-0.57,0.83,-0.01
4:23:53:43:662046,91.53,-34.68,154.5,-0.58,0.83,-0.02
4:23:53:43:662253,91.53,-34.68,154.61,-0.58,0.84,-0.02
4:23:53:43:662349,91.52,-34.68,154.66,-0.58,0.83,-0.02
4:23:53:43:662446,91.52,-34.68,154.68,-0.58,0.84,-0.02
4:23:53:43:662541,91.51,-34.68,154.71,-0.57,0.84,-0.02
4:23:53:43:662652,91.5,-34.67,154.74,-0.58,0.84,-0.02
4:23:53:44:662749,91.49,-34.68,154.78,-0.58,0.84,-0.02
4:23:53:44:662845,91.48,-34.69,154.71,-0.57,0.84,-0.02
4:23:53:44:663452,91.48,-34.68,155.22,-0.58,0.83,-0.02
4:23:53:44:663548,91.47,-34.68,155.21,-0.58,0.84,-0.02
4:23:53:44:663644,91.47,-34.68,155.27,-0.58,0.84,-0.01
4:23:53:45:663740,91.47,-34.69,155.33,-0.58,0.84,-0.01
4:23:53:45:663836,91.47,-34.69,155.36,-0.57,0.84,-0.02
4:23:53:45:663948,91.46,-34.68,155.41,-0.57,0.83,-0.02
4:23:53:45:664044,91.47,-34.68,155.46,-0.57,0.84,-0.02
4:23:53:45:664251,91.47,-34.69,155.49,-0.58,0.84,-0.01
4:23:53:45:664348,91.46,-34.69,155.51,-0.58,0.84,-0.01
4:23:53:45:664443,91.47,-34.69,155.54,-0.58,0.83,-0.02
4:23:53:45:664539,91.48,-34.71,155.63,-0.58,0.81,-0.01
4:23:53:45:664635,91.46,-34.72,155.55,-0.58,0.84,-0.01
4:23:53:46:664747,91.47,-34.71,155.45,-0.58,0.83,-0.02
4:23:53:46:664844,91.47,-34.71,155.41,-0.58,0.83,-0.02
4:23:53:46:665451,91.42,-34.7,155.25,-0.58,0.83,-0.02
4:23:53:46:665547,91.42,-34.7,155.2,-0.58,0.84,-0.02
4:23:53:46:665643,91.43,-34.7,155.15,-0.58,0.84,-0.02
4:23:53:47:665738,91.44,-34.7,155.14,-0.57,0.83,-0.01
4:23:53:47:665850,91.45,-34.71,155.12,-0.58,0.84,-0.02
4:23:53:47:665963,91.45,-34.71,155.09,-0.58,0.83,-0.02
4:23:53:47:666058,91.45,-34.71,155.08,-0.58,0.84,-0.02
4:23:53:47:666250,91.44,-34.71,155.02,-0.58,0.84,-0.02
4:23:53:47:666346,91.44,-34.72,155.0,-0.58,0.84,-0.01
4:23:53:47:666442,91.45,-34.71,155.13,-0.57,0.84,-0.01
4:23:53:47:666538,91.43,-34.72,155.03,-0.58,0.84,-0.02
4:23:53:47:666634,91.43,-34.72,154.91,-0.58,0.84,-0.02
4:23:53:48:666745,91.43,-34.73,154.82,-0.58,0.84,-0.01
4:23:53:48:666858,91.43,-34.73,154.75,-0.57,0.84,-0.02
4:23:53:48:667465,91.44,-34.71,154.49,-0.58,0.84,-0.02
4:23:53:48:667548,91.45,-34.71,154.43,-0.58,0.84,-0.02
4:23:53:48:667657,91.45,-34.71,154.37,-0.58,0.83,-0.02
4:23:53:49:667753,91.45,-34.71,154.3,-0.57,0.84,-0.01
4:23:53:49:667849,91.46,-34.71,154.28,-0.57,0.83,-0.02
4:23:53:49:667961,91.47,-34.72,154.26,-0.58,0.84,-0.02
4:23:53:49:668057,91.47,-34.72,154.24,-0.58,0.84,-0.02
4:23:53:49:668248,91.47,-34.72,154.2,-0.58,0.84,-0.02
4:23:53:49:668345,91.46,-34.72,154.21,-0.57,0.83,-0.02
4:23:53:49:668440,91.46,-34.71,154.2,-0.58,0.84,-0.01
4:23:53:49:668536,91.46,-34.71,154.19,-0.57,0.84,-0.02
4:23:53:49:668632,91.46,-34.71,154.17,-0.58,0.84,-0.02
4:23:53:50:668745,91.48,-34.71,154.38,-0.57,0.83,-0.01
4:23:53:50:668840,91.48,-34.7,154.46,-0.57,0.84,-0.01
4:23:53:50:669464,91.47,-34.69,154.73,-0.58,0.84,-0.01
4:23:53:50:669560,91.48,-34.69,154.8,-0.57,0.83,-0.02
4:23:53:50:669655,91.48,-34.69,154.86,-0.58,0.84,-0.02
4:23:53:51:669752,91.49,-34.7,154.89,-0.58,0.84,-0.02
4:23:53:51:669847,91.5,-34.7,154.94,-0.58,0.83,-0.02
4:23:53:51:669944,91.49,-34.7,155.0,-0.58,0.83,-0.02
4:23:53:51:670039,91.49,-34.7,155.05,-0.58,0.83,-0.02
4:23:53:51:670247,91.49,-34.7,155.12,-0.58,0.83,-0.02
4:23:53:51:670343,91.49,-34.7,155.17,-0.58,0.84,-0.01
4:23:53:51:670439,91.48,-34.69,155.19,-0.58,0.84,-0.02
4:23:53:51:670551,91.47,-34.69,155.17,-0.58,0.84,-0.02
4:23:53:51:670662,91.47,-34.69,155.2,-0.58,0.83,-0.02
4:23:53:52:670759,91.47,-34.69,155.22,-0.58,0.83,-0.01
4:23:53:52:670839,91.46,-34.69,155.24,-0.58,0.84,-0.02
4:23:53:52:671446,91.48,-34.69,155.36,-0.58,0.83,-0.02
4:23:53:52:671558,91.48,-34.69,155.37,-0.57,0.84,-0.02
4:23:53:52:671654,91.48,-34.69,155.37,-0.58,0.84,-0.02
4:23:53:53:671750,91.47,-34.69,155.37,-0.58,0.83,-0.02
4:23:53:53:671846,91.46,-34.7,155.36,-0.58,0.84,-0.02
4:23:53:53:671942,91.44,-34.7,155.37,-0.58,0.84,-0.02
4:23:53:53:672038,91.44,-34.7,155.39,-0.58,0.84,-0.02
4:23:53:53:672245,91.45,-34.69,155.42,-0.58,0.84,-0.02
4:23:53:53:672342,91.46,-34.69,155.4,-0.58,0.84,-0.02
4:23:53:53:672437,91.46,-34.69,155.41,-0.58,0.84,-0.02
4:23:53:53:672533,91.46,-34.69,155.4,-0.58,0.84,-0.01
4:23:53:53:672662,91.44,-34.7,155.34,-0.57,0.83,-0.02
4:23:53:54:672757,91.43,-34.7,155.23,-0.58,0.84,-0.01
4:23:53:54:672854,91.44,-34.7,155.28,-0.58,0.83,-0.02
4:23:53:54:673461,91.49,-34.7,155.61,-0.58,0.83,-0.01
4:23:53:54:673541,91.49,-34.7,155.65,-0.58,0.83,-0.02
4:23:53:54:673653,91.49,-34.69,155.68,-0.58,0.84,-0.01
4:23:53:55:673764,91.49,-34.69,155.74,-0.58,0.83,-0.02
4:23:53:55:673860,91.49,-34.69,155.74,-0.58,0.83,-0.02
4:23:53:55:673956,91.49,-34.69,155.77,-0.58,0.84,-0.02
4:23:53:55:674052,91.49,-34.69,155.79,-0.58,0.84,-0.02
4:23:53:55:674244,91.47,-34.7,155.82,-0.57,0.83,-0.02
4:23:53:55:674341,91.46,-34.69,155.85,-0.58,0.84,-0.01
4:23:53:55:674436,91.48,-34.69,155.87,-0.57,0.84,-0.02
4:23:53:55:674532,91.48,-34.69,155.87,-0.58,0.83,-0.02
4:23:53:55:674644,91.48,-34.7,155.86,-0.58,0.84,-0.01
4:23:53:56:674756,91.48,-34.7,155.9,-0.57,0.83,-0.02
4:23:53:56:674867,91.47,-34.7,155.89,-0.58,0.84,-0.01
4:23:53:56:675459,91.47,-34.71,155.8,-0.58,0.84,-0.02
4:23:53:56:675555,91.46,-34.71,155.8,-0.58,0.84,-0.01
4:23:53:56:675651,91.47,-34.71,155.8,-0.58,0.84,-0.02
4:23:53:57:675747,91.46,-34.71,155.79,-0.58,0.83,-0.02
4:23:53:57:675859,91.46,-34.71,155.77,-0.58,0.84,-0.02
4:23:53:57:675955,91.46,-34.71,155.75,-0.58,0.84,-0.01
4:23:53:57:676051,91.46,-34.71,155.77,-0.57,0.84,-0.02
4:23:53:57:676243,91.45,-34.71,155.76,-0.57,0.84,-0.02
4:23:53:57:676339,91.45,-34.71,155.76,-0.58,0.84,-0.02
4:23:53:57:676450,91.45,-34.7,155.73,-0.58,0.84,-0.02
4:23:53:57:676547,91.45,-34.7,155.7,-0.58,0.83,-0.01
4:23:53:57:676643,91.44,-34.7,155.69,-0.58,0.83,-0.01
4:23:53:58:676738,91.45,-34.7,155.68,-0.58,0.84,-0.01
4:23:53:58:676834,91.44,-34.7,155.71,-0.58,0.83,-0.01
4:23:53:58:677458,91.48,-34.71,155.88,-0.58,0.85,-0.02
4:23:53:58:677554,91.48,-34.72,155.87,-0.58,0.83,-0.01
4:23:53:58:677650,91.47,-34.73,155.77,-0.57,0.84,-0.02
4:23:53:59:677746,91.46,-34.74,155.6,-0.58,0.84,-0.02
4:23:53:59:677858,91.45,-34.74,155.42,-0.58,0.83,-0.02
4:23:53:59:677937,91.45,-34.74,155.26,-0.57,0.84,-0.02
4:23:53:59:678049,91.44,-34.74,155.11,-0.58,0.84,-0.01
4:23:53:59:678241,91.42,-34.74,154.85,-0.58,0.84,-0.01
4:23:53:59:678353,91.42,-34.74,154.74,-0.58,0.83,-0.02
4:23:53:59:678449,91.43,-34.75,154.65,-0.58,0.83,-0.01
4:23:53:59:678561,91.43,-34.74,154.55,-0.58,0.84,-0.02
4:23:53:59:678657,91.43,-34.74,154.5,-0.58,0.84,-0.02
4:23:54:0:678753,91.44,-34.75,154.41,-0.58,0.83,-0.02
4:23:54:0:678849,91.44,-34.74,154.33,-0.58,0.84,-0.02
4:23:54:0:679441,91.42,-34.74,153.56,-0.58,0.84,-0.02
4:23:54:0:679552,91.42,-34.74,153.47,-0.58,0.84,-0.02
4:23:54:0:679648,91.44,-34.74,153.39,-0.58,0.84,-0.01
4:23:54:1:679744,91.44,-34.75,153.33,-0.58,0.83,-0.02
4:23:54:1:679856,91.43,-34.75,153.25,-0.58,0.84,-0.02
4:23:54:1:679952,91.43,-34.74,153.21,-0.57,0.84,-0.02
4:23:54:1:680048,91.42,-34.74,153.15,-0.58,0.84,-0.02
4:23:54:1:680240,91.45,-34.75,153.03,-0.58,0.83,-0.02
4:23:54:1:680336,91.45,-34.74,152.99,-0.58,0.84,-0.02
4:23:54:1:680431,91.44,-34.74,152.96,-0.58,0.83,-0.01
4:23:54:1:680560,91.45,-34.74,152.92,-0.58,0.84,-0.02
4:23:54:1:680656,91.47,-34.74,152.94,-0.57,0.83,-0.02
4:23:54:2:680752,91.48,-34.74,152.97,-0.58,0.84,-0.02
4:23:54:2:680847,91.49,-34.73,153.19,-0.58,0.83,-0.02
4:23:54:2:681439,91.54,-34.71,154.19,-0.58,0.84,-0.02
4:23:54:2:681534,91.54,-34.71,154.32,-0.58,0.84,-0.02
4:23:54:2:681646,91.54,-34.71,154.43,-0.58,0.83,-0.02
4:23:54:3:681743,91.55,-34.71,154.55,-0.58,0.83,-0.02
4:23:54:3:681839,91.55,-34.72,154.64,-0.58,0.84,-0.02
4:23:54:3:681950,91.54,-34.72,154.71,-0.58,0.83,-0.01
4:23:54:3:682062,91.52,-34.72,154.8,-0.58,0.84,-0.02
4:23:54:3:682254,91.52,-34.72,154.94,-0.58,0.83,-0.02
4:23:54:3:682350,91.52,-34.72,154.97,-0.57,0.84,-0.02
4:23:54:3:682446,91.52,-34.72,155.04,-0.58,0.84,-0.02
4:23:54:3:682542,91.52,-34.72,155.08,-0.58,0.84,-0.02
4:23:54:3:682653,91.53,-34.72,155.11,-0.58,0.84,-0.02
4:23:54:4:682750,91.52,-34.73,155.13,-0.58,0.83,-0.02
4:23:54:4:682846,91.52,-34.73,155.17,-0.58,0.84,-0.02
4:23:54:4:683453,91.51,-34.74,155.18,-0.58,0.84,-0.02
4:23:54:4:683549,91.49,-34.74,155.18,-0.57,0.83,-0.01
4:23:54:4:683645,91.5,-34.74,155.17,-0.58,0.84,-0.01
4:23:54:5:683741,91.5,-34.74,155.19,-0.58,0.84,-0.02
4:23:54:5:683838,91.51,-34.74,155.22,-0.58,0.84,-0.02
4:23:54:5:683933,91.51,-34.74,155.22,-0.58,0.83,-0.02
4:23:54:5:684061,91.5,-34.74,155.23,-0.58,0.83,-0.02
4:23:54:5:684237,91.5,-34.75,155.25,-0.58,0.84,-0.01
4:23:54:5:684349,91.49,-34.74,155.26,-0.58,0.83,-0.02
4:23:54:5:684460,91.49,-34.74,155.24,-0.58,0.84,-0.02
4:23:54:5:684557,91.48,-34.74,155.26,-0.58,0.84,-0.02
4:23:54:5:684653,91.49,-34.74,155.28,-0.58,0.84,-0.02
4:23:54:6:684748,91.48,-34.74,155.26,-0.58,0.84,-0.02
4:23:54:6:684845,91.48,-34.74,155.23,-0.58,0.84,-0.01
4:23:54:6:685436,91.49,-34.75,155.22,-0.58,0.84,-0.01
4:23:54:6:685532,91.49,-34.75,155.23,-0.58,0.84,-0.01
4:23:54:6:685644,91.5,-34.75,155.24,-0.58,0.84,-0.02
4:23:54:7:685740,91.49,-34.74,155.24,-0.58,0.84,-0.01
4:23:54:7:685851,91.49,-34.74,155.23,-0.58,0.84,-0.02
4:23:54:7:685947,91.49,-34.74,155.24,-0.58,0.83,-0.02
4:23:54:7:686043,91.49,-34.74,155.24,-0.58,0.84,-0.02
4:23:54:7:686251,91.49,-34.73,155.28,-0.57,0.84,-0.03
4:23:54:7:686347,91.49,-34.74,155.18,-0.58,0.84,-0.01
4:23:54:7:686458,91.47,-34.74,154.92,-0.58,0.84,-0.01
4:23:54:7:686555,91.47,-34.75,154.67,-0.58,0.84,-0.02
4:23:54:7:686651,91.45,-34.75,154.43,-0.58,0.83,-0.01
4:23:54:8:686747,91.44,-34.75,154.23,-0.58,0.83,-0.02
4:23:54:8:686843,91.44,-34.75,154.05,-0.58,0.84,-0.02
4:23:54:8:687450,91.44,-34.76,153.21,-0.57,0.84,-0.02
4:23:54:8:687546,91.45,-34.76,153.11,-0.58,0.84,-0.01
4:23:54:8:687642,91.45,-34.76,153.0,-0.58,0.83,-0.01
4:23:54:9:687754,91.45,-34.75,152.9,-0.58,0.84,-0.01
4:23:54:9:687849,91.46,-34.75,152.85,-0.58,0.84,-0.01
4:23:54:9:687946,91.46,-34.75,152.82,-0.58,0.84,-0.02
4:23:54:9:688042,91.46,-34.75,152.76,-0.58,0.83,-0.02
4:23:54:9:688250,91.46,-34.75,152.62,-0.58,0.83,-0.02
4:23:54:9:688346,91.47,-34.75,152.58,-0.58,0.84,-0.02
4:23:54:9:688441,91.48,-34.75,152.55,-0.58,0.84,-0.02
4:23:54:9:688538,91.48,-34.75,152.53,-0.58,0.84,-0.01
4:23:54:9:688665,91.47,-34.75,152.49,-0.58,0.83,-0.02
4:23:54:10:688762,91.48,-34.75,152.47,-0.58,0.84,-0.02
4:23:54:10:688857,91.48,-34.75,152.43,-0.58,0.84,-0.02
4:23:54:10:689449,91.47,-34.75,152.32,-0.58,0.83,-0.01
4:23:54:10:689561,91.46,-34.75,152.29,-0.58,0.83,-0.02
4:23:54:10:689657,91.45,-34.75,152.25,-0.58,0.84,-0.02
4:23:54:11:689753,91.46,-34.75,152.22,-0.58,0.84,-0.02
4:23:54:11:689848,91.48,-34.75,152.2,-0.58,0.84,-0.02
4:23:54:11:689944,91.49,-34.75,152.19,-0.58,0.83,-0.03
4:23:54:11:690056,91.53,-34.73,152.56,-0.58,0.84,-0.02
4:23:54:11:690248,91.57,-34.72,153.2,-0.58,0.84,-0.02
4:23:54:11:690344,91.59,-34.71,153.51,-0.58,0.84,-0.02
4:23:54:11:690440,91.61,-34.7,153.75,-0.58,0.83,-0.02
4:23:54:11:690552,91.6,-34.7,153.96,-0.58,0.83,-0.01
4:23:54:11:690648,91.6,-34.71,154.16,-0.58,0.84,-0.02
4:23:54:12:690760,91.61,-34.7,154.35,-0.58,0.84,-0.02
4:23:54:12:690855,91.6,-34.7,154.53,-0.58,0.84,-0.02
4:23:54:12:691447,91.55,-34.72,155.23,-0.58,0.84,-0.01
4:23:54:12:691543,91.54,-34.72,155.3,-0.58,0.83,-0.02
4:23:54:12:691639,91.55,-34.72,155.4,-0.58,0.83,-0.02
4:23:54:13:691751,91.55,-34.72,155.48,-0.58,0.84,-0.02
4:23:54:13:691847,91.55,-34.73,155.56,-0.58,0.84,-0.02
4:23:54:13:691958,91.54,-34.73,155.63,-0.58,0.84,-0.02
4:23:54:13:692055,91.53,-34.74,155.69,-0.58,0.84,-0.02
4:23:54:13:692230,91.52,-34.74,155.76,-0.58,0.84,-0.02
4:23:54:13:692358,91.52,-34.75,155.78,-0.58,0.83,-0.02
4:23:54:13:692455,91.53,-34.75,155.83,-0.58,0.83,-0.02
4:23:54:13:692551,91.53,-34.75,155.88,-0.58,0.84,-0.02
4:23:54:13:692646,91.52,-34.75,155.91,-0.58,0.84,-0.02
4:23:54:14:692742,91.51,-34.75,155.94,-0.58,0.83,-0.02
4:23:54:14:692839,91.51,-34.75,155.97,-0.58,0.84,-0.01
4:23:54:14:693446,91.49,-34.75,156.09,-0.58,0.84,-0.02
4:23:54:14:693541,91.49,-34.75,156.11,-0.58,0.84,-0.02
4:23:54:14:693638,91.5,-34.76,156.09,-0.58,0.84,-0.02
4:23:54:15:693734,91.49,-34.76,156.08,-0.58,0.84,-0.02
4:23:54:15:693845,91.5,-34.76,156.07,-0.58,0.83,-0.02
4:23:54:15:693941,91.49,-34.76,156.06,-0.58,0.84,-0.02
4:23:54:15:694037,91.48,-34.76,156.08,-0.58,0.84,-0.02
4:23:54:15:694245,91.48,-34.76,156.09,-0.58,0.83,-0.02
4:23:54:15:694341,91.48,-34.76,156.09,-0.58,0.84,-0.01
4:23:54:15:694453,91.47,-34.76,156.09,-0.58,0.84,-0.02
4:23:54:15:694549,91.47,-34.77,156.08,-0.58,0.83,-0.02
4:23:54:15:694661,91.48,-34.78,156.06,-0.58,0.84,-0.01
4:23:54:16:694757,91.48,-34.77,156.07,-0.58,0.84,-0.02
4:23:54:16:694852,91.48,-34.77,156.07,-0.58,0.83,-0.02
4:23:54:16:695460,91.47,-34.78,155.36,-0.58,0.84,-0.02
4:23:54:16:695556,91.46,-34.79,155.18,-0.58,0.84,-0.02
4:23:54:16:695652,91.46,-34.79,155.07,-0.58,0.84,-0.02
4:23:54:17:695748,91.46,-34.78,154.83,-0.58,0.84,-0.02
4:23:54:17:695844,91.45,-34.78,154.6,-0.58,0.83,-0.01
4:23:54:17:695940,91.44,-34.78,154.38,-0.58,0.84,-0.02
4:23:54:17:696052,91.45,-34.78,154.2,-0.58,0.84,-0.02
4:23:54:17:696259,91.44,-34.79,153.91,-0.58,0.83,-0.02
4:23:54:17:696355,91.45,-34.79,153.85,-0.58,0.84,-0.02
4:23:54:17:696451,91.47,-34.78,153.94,-0.58,0.84,-0.02
4:23:54:17:696547,91.49,-34.77,154.04,-0.58,0.84,-0.02
4:23:54:17:696643,91.49,-34.76,154.17,-0.58,0.83,-0.01
4:23:54:18:696739,91.5,-34.76,154.25,-0.58,0.84,-0.02
4:23:54:18:696851,91.5,-34.76,154.38,-0.58,0.84,-0.01
4:23:54:18:697458,91.49,-34.77,154.25,-0.58,0.83,-0.02
4:23:54:18:697554,91.49,-34.77,154.23,-0.58,0.83,-0.02
4:23:54:18:697650,91.49,-34.77,154.26,-0.58,0.84,-0.02
4:23:54:19:697746,91.49,-34.78,154.27,-0.58,0.83,-0.02
4:23:54:19:697842,91.49,-34.78,154.25,-0.58,0.84,-0.02
4:23:54:19:697953,91.48,-34.78,154.22,-0.58,0.84,-0.01
4:23:54:19:698050,91.48,-34.78,154.21,-0.58,0.83,-0.01
4:23:54:19:698242,91.5,-34.78,154.18,-0.58,0.84,-0.02
4:23:54:19:698338,91.49,-34.78,154.16,-0.58,0.84,-0.02
4:23:54:19:698466,91.5,-34.78,154.14,-0.58,0.84,-0.02
4:23:54:19:698562,91.5,-34.78,154.15,-0.58,0.83,-0.02
4:23:54:19:698660,91.51,-34.78,154.28,-0.57,0.83,-0.01
4:23:54:20:698753,91.52,-34.78,154.3,-0.58,0.84,-0.02
4:23:54:20:698850,91.53,-34.78,154.46,-0.58,0.83,-0.02
4:23:54:20:699457,91.54,-34.77,155.14,-0.58,0.84,-0.02
4:23:54:20:699553,91.54,-34.76,155.18,-0.58,0.83,-0.02
4:23:54:20:699649,91.55,-34.76,155.25,-0.58,0.84,-0.02
4:23:54:21:699745,91.53,-34.77,155.33,-0.58,0.83,-0.01
4:23:54:21:699841,91.52,-34.77,155.4,-0.58,0.84,-0.02
4:23:54:21:699937,91.53,-34.77,155.47,-0.58,0.84,-0.02
4:23:54:21:700033,91.54,-34.77,155.5,-0.58,0.84,-0.02
4:23:54:21:700240,91.54,-34.78,155.56,-0.58,0.84,-0.02
4:23:54:21:700352,91.54,-34.78,155.6,-0.58,0.84,-0.01
4:23:54:21:700448,91.54,-34.77,155.64,-0.58,0.83,-0.01
4:23:54:21:700544,91.53,-34.78,155.68,-0.58,0.83,-0.02
4:23:54:21:700656,91.53,-34.78,155.69,-0.58,0.84,-0.02
4:23:54:22:700752,91.53,-34.77,155.71,-0.58,0.84,-0.02
4:23:54:22:700848,91.53,-34.77,155.75,-0.58,0.84,-0.02
4:23:54:22:701455,91.51,-34.77,155.81,-0.58,0.84,-0.02
4:23:54:22:701551,91.51,-34.77,155.78,-0.58,0.84,-0.02
4:23:54:22:701647,91.52,-34.77,155.8,-0.58,0.83,-0.02
4:23:54:23:701743,91.52,-34.77,155.87,-0.57,0.88,-0.04
4:23:54:23:701839,91.49,-34.79,155.66,-0.58,0.83,-0.02
4:23:54:23:701951,91.48,-34.79,155.53,-0.58,0.84,-0.02
4:23:54:23:702046,91.47,-34.79,155.4,-0.58,0.84,-0.02
4:23:54:23:702239,91.48,-34.79,155.24,-0.58,0.84,-0.01
4:23:54:23:702351,91.46,-34.79,155.13,-0.58,0.83,-0.02
4:23:54:23:702447,91.47,-34.79,155.07,-0.58,0.84,-0.02
4:23:54:23:702543,91.47,-34.79,155.02,-0.58,0.84,-0.02
4:23:54:23:702655,91.49,-34.78,154.97,-0.58,0.83,-0.02
4:23:54:24:702750,91.48,-34.79,154.91,-0.58,0.84,-0.02
4:23:54:24:702847,91.48,-34.78,154.86,-0.58,0.84,-0.02
4:23:54:24:703454,91.49,-34.77,154.59,-0.58,0.84,-0.01
4:23:54:24:703550,91.48,-34.77,154.57,-0.58,0.84,-0.02
4:23:54:24:703646,91.48,-34.77,154.53,-0.58,0.83,-0.01
4:23:54:25:703758,91.48,-34.78,154.5,-0.58,0.84,-0.02
4:23:54:25:703854,91.49,-34.77,154.47,-0.58,0.83,-0.01
4:23:54:25:703950,91.48,-34.77,154.44,-0.57,0.84,-0.02
4:23:54:25:704045,91.49,-34.78,154.38,-0.58,0.84,-0.01
4:23:54:25:704253,91.51,-34.77,154.53,-0.58,0.84,-0.02
4:23:54:25:704349,91.53,-34.76,154.62,-0.58,0.84,-0.02
4:23:54:25:704445,91.53,-34.76,154.71,-0.58,0.83,-0.02
4:23:54:25:704541,91.53,-34.75,154.78,-0.58,0.84,-0.02
4:23:54:25:704638,91.53,-34.75,154.83,-0.58,0.84,-0.01
4:23:54:26:704748,91.52,-34.75,154.89,-0.58,0.84,-0.02
4:23:54:26:704845,91.52,-34.75,154.94,-0.58,0.84,-0.02
4:23:54:26:705436,91.54,-34.76,155.17,-0.58,0.84,-0.01
4:23:54:26:705564,91.53,-34.76,155.18,-0.58,0.84,-0.01
4:23:54:26:705660,91.53,-34.77,155.2,-0.58,0.84,-0.02
4:23:54:27:705772,91.51,-34.77,155.21,-0.58,0.83,-0.02
4:23:54:27:705853,91.5,-34.77,155.25,-0.58,0.83,-0.02
4:23:54:27:705948,91.5,-34.77,155.27,-0.58,0.84,-0.02
4:23:54:27:706059,91.5,-34.77,155.29,-0.58,0.83,-0.01
4:23:54:27:706252,91.5,-34.78,155.32,-0.58,0.83,-0.02
4:23:54:27:706348,91.49,-34.78,155.32,-0.58,0.83,-0.02
4:23:54:27:706444,91.49,-34.79,155.33,-0.58,0.84,-0.01
4:23:54:27:706540,91.49,-34.79,155.35,-0.58,0.83,-0.02
4:23:54:27:706636,91.5,-34.79,155.44,-0.6,0.84,-0.01
4:23:54:28:706748,91.51,-34.81,155.32,-0.59,0.83,-0.01
4:23:54:28:706843,91.51,-34.81,155.25,-0.58,0.84,-0.02
4:23:54:28:707450,91.5,-34.8,155.03,-0.58,0.84,-0.02
4:23:54:28:707546,91.5,-34.8,155.0,-0.58,0.84,-0.02
4:23:54:28:707659,91.49,-34.8,154.95,-0.58,0.83,-0.02
4:23:54:29:707755,91.48,-34.8,154.96,-0.58,0.84,-0.02
4:23:54:29:707850,91.48,-34.79,154.9,-0.57,0.84,-0.02
4:23:54:29:707962,91.48,-34.79,154.89,-0.58,0.83,-0.01
4:23:54:29:708058,91.49,-34.79,154.89,-0.58,0.84,-0.01
4:23:54:29:708250,91.49,-34.79,154.8,-0.58,0.83,-0.02
4:23:54:29:708347,91.48,-34.79,154.76,-0.58,0.84,-0.02
4:23:54:29:708442,91.49,-34.79,154.75,-0.58,0.84,-0.02
4:23:54:29:708538,91.5,-34.79,154.74,-0.58,0.84,-0.02
4:23:54:29:708634,91.49,-34.79,154.74,-0.58,0.84,-0.02
4:23:54:30:708746,91.49,-34.79,154.75,-0.58,0.84,-0.02
4:23:54:30:708858,91.49,-34.79,154.74,-0.58,0.84,-0.02
4:23:54:30:709449,91.5,-34.79,154.74,-0.58,0.84,-0.02
4:23:54:30:709546,91.5,-34.79,154.75,-0.58,0.83,-0.01
4:23:54:30:709641,91.5,-34.79,154.72,-0.57,0.84,-0.02
4:23:54:31:709737,91.49,-34.79,154.73,-0.58,0.84,-0.02
4:23:54:31:709834,91.49,-34.79,154.75,-0.58,0.84,-0.02
4:23:54:31:709945,91.49,-34.79,154.74,-0.58,0.83,-0.02
4:23:54:31:710057,91.5,-34.79,154.73,-0.58,0.84,-0.02
4:23:54:31:710265,91.51,-34.79,154.72,-0.58,0.84,-0.02
4:23:54:31:710361,91.52,-34.78,154.74,-0.58,0.83,-0.02
4:23:54:31:710457,91.5,-34.79,154.61,-0.58,0.84,-0.02
4:23:54:31:710552,91.51,-34.79,154.64,-0.58,0.84,-0.02
4:23:54:31:710648,91.51,-34.79,154.74,-0.58,0.83,-0.01
4:23:54:32:710760,91.52,-34.78,154.88,-0.58,0.83,-0.02
4:23:54:32:710856,91.52,-34.79,154.9,-0.58,0.84,-0.02
4:23:54:32:711464,91.51,-34.78,155.25,-0.58,0.83,-0.01
4:23:54:32:711544,91.51,-34.78,155.31,-0.58,0.84,-0.02
4:23:54:32:711640,91.5,-34.77,155.33,-0.58,0.83,-0.02
4:23:54:33:711751,91.52,-34.77,155.38,-0.58,0.84,-0.02
4:23:54:33:711847,91.52,-34.78,155.44,-0.58,0.83,-0.02
4:23:54:33:711944,91.52,-34.78,155.45,-0.58,0.83,-0.02
4:23:54:33:712039,91.51,-34.78,155.48,-0.58,0.84,-0.02
4:23:54:33:712247,91.5,-34.78,155.55,-0.58,0.83,-0.02
4:23:54:33:712344,91.5,-34.77,155.7,-0.58,0.84,-0.02
4:23:54:33:712439,91.5,-34.77,155.72,-0.58,0.84,-0.02
4:23:54:33:712535,91.52,-34.77,155.82,-0.58,0.83,-0.02
4:23:54:33:712647,91.51,-34.78,155.87,-0.58,0.84,-0.02
4:23:54:34:712743,91.53,-34.78,155.91,-0.58,0.83,-0.02
4:23:54:34:712855,91.53,-34.78,155.96,-0.58,0.84,-0.02
4:23:54:34:713446,91.5,-34.77,156.2,-0.58,0.84,-0.02
4:23:54:34:713542,91.5,-34.77,156.22,-0.58,0.83,-0.02
4:23:54:34:713638,91.51,-34.77,156.26,-0.58,0.84,-0.02
4:23:54:35:713734,91.51,-34.77,156.29,-0.58,0.83,-0.02
4:23:54:35:713846,91.5,-34.78,156.33,-0.58,0.84,-0.02
4:23:54:35:713942,91.5,-34.77,156.37,-0.58,0.83,-0.01
4:23:54:35:714054,91.49,-34.77,156.35,-0.58,0.84,-0.02
4:23:54:35:714246,91.48,-34.78,156.1,-0.58,0.84,-0.02
4:23:54:35:714342,91.47,-34.78,156.02,-0.58,0.84,-0.02
4:23:54:35:714454,91.47,-34.79,155.97,-0.58,0.84,-0.02
4:23:54:35:714550,91.47,-34.79,155.89,-0.58,0.83,-0.01
4:23:54:35:714646,91.47,-34.79,155.83,-0.58,0.83,-0.02
4:23:54:36:714757,91.47,-34.8,155.76,-0.58,0.84,-0.02
4:23:54:36:714853,91.47,-34.8,155.69,-0.58,0.83,-0.01
4:23:54:36:715445,91.46,-34.8,155.43,-0.58,0.83,-0.01
4:23:54:36:715541,91.46,-34.8,155.42,-0.58,0.84,-0.02
4:23:54:36:715637,91.46,-34.79,155.4,-0.58,0.84,-0.02
4:23:54:37:715764,91.47,-34.79,155.38,-0.58,0.83,-0.01
4:23:54:37:715861,91.48,-34.79,155.38,-0.58,0.84,-0.01
4:23:54:37:715957,91.49,-34.8,155.34,-0.58,0.84,-0.02
4:23:54:37:716052,91.49,-34.8,155.33,-0.58,0.84,-0.02
4:23:54:37:716261,91.49,-34.79,155.28,-0.58,0.84,-0.02
4:23:54:37:716340,91.49,-34.79,155.26,-0.58,0.84,-0.02
4:23:54:37:716452,91.49,-34.79,155.26,-0.57,0.84,-0.02
4:23:54:37:716548,91.48,-34.79,155.28,-0.58,0.83,-0.01
4:23:54:37:716660,91.48,-34.79,155.28,-0.58,0.84,-0.02
4:23:54:38:716756,91.47,-34.8,155.28,-0.58,0.84,-0.01
4:23:54:38:716852,91.47,-34.8,155.29,-0.58,0.83,-0.02
4:23:54:38:717459,91.5,-34.79,155.23,-0.58,0.84,-0.02
4:23:54:38:717555,91.5,-34.79,155.22,-0.58,0.84,-0.01
4:23:54:38:717652,91.51,-34.79,155.2,-0.58,0.83,-0.01
4:23:54:39:717747,91.49,-34.79,155.22,-0.58,0.84,-0.02
4:23:54:39:717843,91.51,-34.8,155.21,-0.57,0.83,-0.01
4:23:54:39:717955,91.5,-34.8,155.2,-0.59,0.84,-0.01
4:23:54:39:718051,91.51,-34.8,155.25,-0.58,0.84,-0.01
4:23:54:39:718243,91.51,-34.79,155.43,-0.58,0.83,-0.02
4:23:54:39:718339,91.52,-34.79,155.53,-0.59,0.8,-0.01
4:23:54:39:718435,91.51,-34.8,155.49,-0.58,0.83,-0.02
4:23:54:39:718546,91.48,-34.81,155.37,-0.58,0.84,-0.02
4:23:54:39:718643,91.48,-34.81,155.29,-0.58,0.83,-0.02
4:23:54:40:718754,91.47,-34.81,155.17,-0.58,0.84,-0.01
4:23:54:40:718850,91.46,-34.81,155.05,-0.58,0.84,-0.02
4:23:54:40:719458,91.48,-34.81,154.62,-0.58,0.84,-0.01
4:23:54:40:719554,91.49,-34.81,154.6,-0.58,0.84,-0.01
4:23:54:40:719650,91.48,-34.81,154.56,-0.58,0.83,-0.02
4:23:54:41:719761,91.49,-34.82,154.55,-0.58,0.84,-0.02
4:23:54:41:719858,91.51,-34.8,154.54,-0.58,0.83,-0.02
4:23:54:41:719953,91.52,-34.81,154.53,-0.58,0.84,-0.02
4:23:54:41:720049,91.53,-34.8,154.54,-0.58,0.84,-0.02
4:23:54:41:720242,91.52,-34.8,154.53,-0.58,0.84,-0.02
4:23:54:41:720353,91.52,-34.8,154.53,-0.58,0.83,-0.02
4:23:54:41:720449,91.51,-34.8,154.53,-0.58,0.84,-0.02
4:23:54:41:720545,91.52,-34.8,154.55,-0.58,0.83,-0.02
4:23:54:41:720641,91.52,-34.8,154.55,-0.58,0.84,-0.02
4:23:54:42:720753,91.53,-34.79,154.56,-0.58,0.84,-0.01
4:23:54:42:720848,91.54,-34.79,154.58,-0.58,0.83,-0.01
4:23:54:42:721456,91.53,-34.8,154.52,-0.58,0.84,-0.02
4:23:54:42:721552,91.52,-34.8,154.52,-0.58,0.84,-0.02
4:23:54:42:721664,91.52,-34.8,154.48,-0.58,0.84,-0.01
4:23:54:43:721760,91.51,-34.8,154.47,-0.58,0.84,-0.02
4:23:54:43:721856,91.51,-34.8,154.5,-0.58,0.84,-0.01
4:23:54:43:721952,91.51,-34.8,154.49,-0.58,0.84,-0.02
4:23:54:43:722048,91.5,-34.8,154.48,-0.58,0.84,-0.02
4:23:54:43:722256,91.5,-34.8,154.57,-0.58,0.83,-0.01
4:23:54:43:722352,91.48,-34.8,154.45,-0.58,0.84,-0.02
4:23:54:43:722448,91.48,-34.81,154.35,-0.58,0.83,-0.01
4:23:54:43:722544,91.47,-34.8,154.26,-0.58,0.84,-0.02
4:23:54:43:722640,91.46,-34.81,154.15,-0.58,0.83,-0.02
4:23:54:44:722751,91.47,-34.81,154.1,-0.58,0.84,-0.02
4:23:54:44:722847,91.47,-34.81,154.04,-0.58,0.83,-0.02
4:23:54:44:723455,91.47,-34.79,153.93,-0.58,0.84,-0.02
4:23:54:44:723551,91.49,-34.79,153.93,-0.58,0.83,-0.01
4:23:54:44:723647,91.48,-34.79,153.94,-0.58,0.83,-0.02
4:23:54:45:723743,91.5,-34.79,153.97,-0.58,0.84,-0.02
4:23:54:45:723839,91.5,-34.79,154.0,-0.58,0.83,-0.02
4:23:54:45:723935,91.5,-34.79,154.01,-0.58,0.84,-0.02
4:23:54:45:724031,91.51,-34.79,153.99,-0.58,0.84,-0.02
4:23:54:45:724254,91.51,-34.79,154.05,-0.58,0.84,-0.02
4:23:54:45:724350,91.51,-34.79,154.06,-0.58,0.84,-0.02
4:23:54:45:724446,91.53,-34.79,154.1,-0.58,0.84,-0.02
4:23:54:45:724558,91.51,-34.79,154.09,-0.58,0.83,-0.02
4:23:54:45:724653,91.51,-34.79,154.1,-0.58,0.83,-0.02
4:23:54:46:724750,91.5,-34.8,154.14,-0.58,0.83,-0.02
4:23:54:46:724846,91.49,-34.8,154.14,-0.58,0.84,-0.02
4:23:54:46:725453,91.53,-34.78,154.36,-0.58,0.84,-0.02
4:23:54:46:725549,91.57,-34.77,154.62,-0.58,0.84,-0.02
4:23:54:46:725646,91.59,-34.76,154.88,-0.58,0.84,-0.01
4:23:54:47:725741,91.6,-34.76,155.11,-0.58,0.83,-0.02
4:23:54:47:725853,91.61,-34.75,155.35,-0.58,0.83,-0.02
4:23:54:47:725949,91.61,-34.75,155.55,-0.58,0.84,-0.02
4:23:54:47:726045,91.61,-34.75,155.71,-0.58,0.84,-0.02
4:23:54:47:726253,91.61,-34.75,156.03,-0.58,0.84,-0.03
4:23:54:47:726333,91.59,-34.75,156.14,-0.58,0.84,-0.01
4:23:54:47:726461,91.59,-34.75,156.29,-0.58,0.83,-0.02
4:23:54:47:726557,91.58,-34.75,156.43,-0.58,0.84,-0.02
4:23:54:47:726653,91.57,-34.75,156.51,-0.58,0.84,-0.02
4:23:54:48:726748,91.56,-34.76,156.57,-0.58,0.84,-0.02
4:23:54:48:726844,91.56,-34.76,156.68,-0.58,0.84,-0.01
4:23:54:48:727452,91.49,-34.79,156.31,-0.58,0.84,-0.02
4:23:54:48:727564,91.48,-34.8,156.25,-0.58,0.84,-0.02
4:23:54:48:727659,91.48,-34.8,156.17,-0.58,0.83,-0.02
4:23:54:49:727740,91.49,-34.79,156.1,-0.58,0.84,-0.02
4:23:54:49:727836,91.48,-34.8,156.02,-0.58,0.83,-0.01
4:23:54:49:727947,91.48,-34.81,155.93,-0.58,0.84,-0.02
4:23:54:49:728059,91.48,-34.8,155.88,-0.58,0.83,-0.02
4:23:54:49:728251,91.46,-34.81,155.74,-0.58,0.83,-0.01
4:23:54:49:728347,91.47,-34.81,155.69,-0.58,0.84,-0.02
4:23:54:49:728443,91.48,-34.8,155.67,-0.58,0.84,-0.02
4:23:54:49:728555,91.49,-34.8,155.6,-0.58,0.83,-0.02
4:23:54:49:728650,91.49,-34.8,155.55,-0.58,0.83,-0.02
4:23:54:50:728747,91.48,-34.8,155.52,-0.58,0.84,-0.01
4:23:54:50:728843,91.47,-34.8,155.51,-0.58,0.84,-0.02
4:23:54:50:729466,91.47,-34.79,155.33,-0.58,0.83,-0.02
4:23:54:50:729546,91.48,-34.79,155.3,-0.58,0.83,-0.02
4:23:54:50:729658,91.48,-34.79,155.3,-0.58,0.84,-0.02
4:23:54:51:729755,91.48,-34.79,155.32,-0.58,0.84,-0.01
4:23:54:51:729850,91.49,-34.79,155.29,-0.58,0.84,-0.02
4:23:54:51:729946,91.48,-34.8,155.3,-0.58,0.83,-0.02
4:23:54:51:730042,91.48,-34.79,155.3,-0.58,0.83,-0.01
4:23:54:51:730249,91.48,-34.8,155.28,-0.58,0.83,-0.03
4:23:54:51:730346,91.49,-34.8,155.27,-0.58,0.83,-0.02
4:23:54:51:730442,91.5,-34.8,155.27,-0.58,0.84,-0.02
4:23:54:51:730538,91.51,-34.8,155.25,-0.58,0.84,-0.02
4:23:54:51:730649,91.52,-34.8,155.25,-0.58,0.83,-0.02
4:23:54:52:730746,91.52,-34.79,155.23,-0.58,0.84,-0.02
4:23:54:52:730857,91.53,-34.79,155.22,-0.58,0.83,-0.02
4:23:54:52:731449,91.5,-34.8,155.17,-0.58,0.83,-0.02
4:23:54:52:731545,91.48,-34.81,155.02,-0.58,0.83,-0.02
4:23:54:52:731641,91.49,-34.81,154.87,-0.58,0.84,-0.02
4:23:54:53:731753,91.48,-34.81,154.76,-0.58,0.84,-0.02
4:23:54:53:731864,91.48,-34.82,154.75,-0.58,0.83,-0.01
4:23:54:53:731961,91.47,-34.81,154.8,-0.58,0.84,-0.01
4:23:54:53:732057,91.49,-34.81,154.89,-0.58,0.83,-0.02
4:23:54:53:732248,91.5,-34.8,155.01,-0.58,0.84,-0.02
4:23:54:53:732344,91.49,-34.8,155.03,-0.58,0.83,-0.02
4:23:54:53:732440,91.49,-34.8,155.08,-0.58,0.83,-0.02
4:23:54:53:732552,91.49,-34.8,155.14,-0.58,0.83,-0.02
4:23:54:53:732663,91.5,-34.8,155.08,-0.57,0.82,-0.01
4:23:54:54:732760,91.51,-34.8,155.19,-0.58,0.86,-0.03
4:23:54:54:732856,91.51,-34.8,155.27,-0.58,0.84,-0.02
4:23:54:54:733431,91.51,-34.79,155.67,-0.58,0.84,-0.02
4:23:54:54:733560,91.51,-34.79,155.71,-0.58,0.84,-0.02
4:23:54:54:733655,91.51,-34.79,155.74,-0.58,0.84,-0.02
4:23:54:55:733751,91.5,-34.79,155.71,-0.58,0.84,-0.02
4:23:54:55:733863,91.48,-34.8,155.48,-0.58,0.84,-0.02
4:23:54:55:733943,91.47,-34.81,155.29,-0.58,0.84,-0.01
4:23:54:55:734055,91.47,-34.81,155.16,-0.58,0.84,-0.03
4:23:54:55:734247,91.49,-34.81,155.16,-0.58,0.84,-0.01
4:23:54:55:734359,91.5,-34.81,155.24,-0.58,0.84,-0.02
4:23:54:55:734455,91.49,-34.8,155.28,-0.58,0.83,-0.02
4:23:54:55:734551,91.5,-34.79,155.24,-0.58,0.84,-0.02
4:23:54:55:734647,91.5,-34.79,155.23,-0.58,0.83,-0.02
4:23:54:56:734743,91.5,-34.79,155.21,-0.58,0.84,-0.02
4:23:54:56:734839,91.5,-34.79,155.17,-0.58,0.84,-0.02
4:23:54:56:735446,91.52,-34.79,155.12,-0.58,0.84,-0.01
4:23:54:56:735543,91.52,-34.79,155.18,-0.58,0.83,-0.02
4:23:54:56:735654,91.51,-34.79,155.23,-0.58,0.84,-0.02
4:23:54:57:735734,91.51,-34.79,155.3,-0.58,0.83,-0.02
4:23:54:57:735862,91.51,-34.79,155.29,-0.58,0.83,-0.01
4:23:54:57:735958,91.51,-34.79,155.33,-0.58,0.83,-0.02
4:23:54:57:736054,91.51,-34.79,155.38,-0.58,0.84,-0.02
4:23:54:57:736245,91.51,-34.8,155.43,-0.58,0.84,-0.02
4:23:54:57:736342,91.51,-34.8,155.41,-0.58,0.84,-0.02
4:23:54:57:736438,91.52,-34.8,155.44,-0.58,0.84,-0.01
4:23:54:57:736549,91.5,-34.8,155.47,-0.58,0.84,-0.02
4:23:54:57:736645,91.49,-34.8,155.46,-0.58,0.83,-0.02
4:23:54:58:736757,91.49,-34.8,155.5,-0.58,0.84,-0.02
4:23:54:58:736853,91.49,-34.8,155.51,-0.58,0.84,-0.02
4:23:54:58:737444,91.5,-34.81,155.58,-0.58,0.84,-0.02
4:23:54:58:737556,91.5,-34.8,155.56,-0.58,0.84,-0.02
4:23:54:58:737653,91.51,-34.8,155.58,-0.58,0.83,-0.02
4:23:54:59:737748,91.51,-34.79,155.59,-0.58,0.83,-0.02
4:23:54:59:737844,91.5,-34.78,155.64,-0.58,0.83,-0.01
4:23:54:59:737940,91.5,-34.78,155.66,-0.58,0.84,-0.02
4:23:54:59:738052,91.49,-34.79,155.64,-0.58,0.83,-0.02
4:23:54:59:738260,91.49,-34.79,155.61,-0.58,0.83,-0.02
4:23:54:59:738356,91.5,-34.79,155.64,-0.58,0.84,-0.01
4:23:54:59:738452,91.49,-34.8,155.62,-0.58,0.84,-0.02
4:23:54:59:738548,91.49,-34.79,155.6,-0.58,0.84,-0.02
4:23:54:59:738643,91.48,-34.79,155.61,-0.58,0.83,-0.02
4:23:55:0:738739,91.48,-34.79,155.65,-0.58,0.84,-0.02
4:23:55:0:738835,91.48,-34.79,155.68,-0.58,0.84,-0.02
4:23:55:0:739459,91.48,-34.79,155.51,-0.58,0.86,-0.03
4:23:55:0:739555,91.47,-34.8,155.4,-0.58,0.84,-0.02
4:23:55:0:739651,91.48,-34.79,155.42,-0.58,0.84,-0.01
4:23:55:1:739747,91.49,-34.79,155.43,-0.58,0.83,-0.02
4:23:55:1:739842,91.49,-34.8,155.41,-0.58,0.84,-0.02
4:23:55:1:739954,91.5,-34.8,155.42,-0.58,0.84,-0.02
4:23:55:1:740050,91.52,-34.79,155.35,-0.57,0.83,-0.02
4:23:55:1:740258,91.52,-34.79,155.39,-0.58,0.84,-0.02
4:23:55:1:740354,91.52,-34.79,155.42,-0.58,0.84,-0.02
4:23:55:1:740450,91.51,-34.79,155.4,-0.58,0.84,-0.02
4:23:55:1:740546,91.51,-34.8,155.42,-0.58,0.84,-0.02
4:23:55:1:740642,91.5,-34.8,155.42,-0.58,0.84,-0.02
4:23:55:2:740753,91.5,-34.8,155.39,-0.58,0.84,-0.02
4:23:55:2:740850,91.51,-34.8,155.4,-0.58,0.84,-0.02
4:23:55:2:741441,91.51,-34.79,155.44,-0.58,0.84,-0.02
4:23:55:2:741553,91.51,-34.79,155.44,-0.58,0.83,-0.02
4:23:55:2:741649,91.51,-34.79,155.45,-0.58,0.84,-0.02
4:23:55:3:741745,91.51,-34.79,155.46,-0.58,0.83,-0.02
4:23:55:3:741857,91.51,-34.78,155.47,-0.58,0.84,-0.02
4:23:55:3:741953,91.5,-34.78,155.49,-0.58,0.84,-0.01
4:23:55:3:742049,91.52,-34.78,155.49,-0.58,0.83,-0.02
4:23:55:3:742257,91.52,-34.78,155.5,-0.58,0.84,-0.02
4:23:55:3:742353,91.52,-34.78,155.5,-0.58,0.84,-0.01
4:23:55:3:742449,91.52,-34.77,155.53,-0.58,0.84,-0.01
4:23:55:3:742544,91.52,-34.78,155.51,-0.58,0.84,-0.02
4:23:55:3:742641,91.52,-34.78,155.52,-0.58,0.83,-0.02
4:23:55:4:742752,91.51,-34.77,155.51,-0.58,0.84,-0.02
4:23:55:4:742848,91.51,-34.78,155.5,-0.58,0.83,-0.01
4:23:55:4:743440,91.51,-34.8,155.5,-0.58,0.84,-0.02
4:23:55:4:743551,91.5,-34.8,155.48,-0.58,0.84,-0.01
4:23:55:4:743647,91.5,-34.79,155.49,-0.58,0.84,-0.02
4:23:55:5:743743,91.51,-34.8,155.46,-0.57,0.83,-0.01
4:23:55:5:743839,91.51,-34.8,155.45,-0.58,0.84,-0.02
4:23:55:5:743935,91.49,-34.8,155.48,-0.57,0.83,-0.01
4:23:55:5:744047,91.5,-34.81,155.47,-0.58,0.84,-0.02
4:23:55:5:744239,91.5,-34.8,155.54,-0.58,0.83,-0.02
4:23:55:5:744335,91.5,-34.8,155.57,-0.58,0.84,-0.02
4:23:55:5:744462,91.49,-34.8,155.57,-0.58,0.83,-0.02
4:23:55:5:744559,91.49,-34.8,155.62,-0.58,0.84,-0.02
4:23:55:5:744655,91.5,-34.8,155.64,-0.58,0.83,-0.02
4:23:55:6:744751,91.49,-34.8,155.65,-0.58,0.84,-0.01
4:23:55:6:744847,91.49,-34.8,155.65,-0.58,0.84,-0.02
4:23:55:6:745438,91.5,-34.79,155.67,-0.58,0.84,-0.02
4:23:55:6:745534,91.5,-34.79,155.68,-0.58,0.84,-0.02
4:23:55:6:745646,91.5,-34.79,155.68,-0.58,0.83,-0.02
4:23:55:7:745758,91.51,-34.79,155.68,-0.58,0.84,-0.02
4:23:55:7:745854,91.51,-34.79,155.68,-0.58,0.84,-0.02
4:23:55:7:745950,91.5,-34.79,155.69,-0.58,0.84,-0.01
4:23:55:7:746045,91.49,-34.79,155.69,-0.58,0.84,-0.01
4:23:55:7:746253,91.48,-34.79,155.71,-0.58,0.84,-0.02
4:23:55:7:746350,91.47,-34.79,155.73,-0.58,0.84,-0.02
4:23:55:7:746445,91.48,-34.79,155.74,-0.58,0.84,-0.02
4:23:55:7:746541,91.49,-34.79,155.8,-0.58,0.84,-0.02
4:23:55:7:746652,91.49,-34.79,155.78,-0.58,0.84,-0.01
4:23:55:8:746749,91.49,-34.79,155.81,-0.58,0.84,-0.02
4:23:55:8:746845,91.49,-34.79,155.96,-0.57,0.82,0.0
4:23:55:8:747453,91.43,-34.82,154.94,-0.58,0.84,-0.01
4:23:55:8:747549,91.43,-34.82,154.73,-0.58,0.83,-0.02
4:23:55:8:747644,91.42,-34.82,154.52,-0.58,0.84,-0.02
4:23:55:9:747740,91.43,-34.82,154.35,-0.58,0.84,-0.02
4:23:55:9:747836,91.43,-34.82,154.21,-0.58,0.83,-0.02
4:23:55:9:747947,91.44,-34.82,154.26,-0.57,0.83,-0.01
4:23:55:9:748060,91.45,-34.81,154.44,-0.58,0.84,-0.01
4:23:55:9:748252,91.52,-34.8,154.75,-0.58,0.84,-0.01
4:23:55:9:748348,91.53,-34.79,154.91,-0.58,0.84,-0.02
4:23:55:9:748444,91.51,-34.78,154.92,-0.58,0.84,-0.02
4:23:55:9:748540,91.51,-34.79,154.81,-0.58,0.83,-0.02
4:23:55:9:748651,91.52,-34.8,154.71,-0.57,0.83,-0.02
4:23:55:10:748763,91.5,-34.8,154.69,-0.58,0.84,-0.01
4:23:55:10:748860,91.49,-34.8,154.64,-0.58,0.84,-0.01
4:23:55:10:749451,91.49,-34.8,154.36,-0.58,0.84,-0.02
4:23:55:10:749562,91.49,-34.8,154.33,-0.58,0.84,-0.02
4:23:55:10:749659,91.48,-34.79,154.3,-0.58,0.84,-0.02
4:23:55:11:749755,91.49,-34.79,154.27,-0.58,0.84,-0.02
4:23:55:11:749851,91.5,-34.79,154.26,-0.58,0.83,-0.02
4:23:55:11:749962,91.49,-34.79,154.2,-0.58,0.84,-0.02
4:23:55:11:750059,91.49,-34.79,154.21,-0.58,0.84,-0.02
4:23:55:11:750250,91.48,-34.81,154.19,-0.58,0.84,-0.01
4:23:55:11:750362,91.49,-34.81,154.17,-0.58,0.84,-0.02
4:23:55:11:750458,91.49,-34.81,154.15,-0.58,0.83,-0.02
4:23:55:11:750555,91.51,-34.81,154.15,-0.58,0.83,-0.02
4:23:55:11:750650,91.5,-34.81,154.16,-0.58,0.84,-0.02
4:23:55:12:750746,91.49,-34.81,154.11,-0.58,0.84,-0.02
4:23:55:12:750857,91.49,-34.8,154.09,-0.58,0.84,-0.02
4:23:55:12:751657,91.59,-34.78,155.05,-0.58,0.84,-0.02
4:23:55:13:751753,91.59,-34.78,155.23,-0.58,0.84,-0.02
4:23:55:13:751849,91.58,-34.82,155.25,-0.59,0.83,-0.0
4:23:55:13:751961,91.55,-34.82,155.13,-0.58,0.84,-0.02
4:23:55:13:752057,91.54,-34.82,154.96,-0.58,0.84,-0.02
4:23:55:13:752168,91.52,-34.82,154.83,-0.58,0.84,-0.02
4:23:55:13:752249,91.51,-34.82,154.67,-0.58,0.84,-0.02
4:23:55:13:752553,91.48,-34.82,154.32,-0.58,0.84,-0.02
4:23:55:13:752665,91.47,-34.82,154.24,-0.58,0.84,-0.02
4:23:55:14:752776,91.48,-34.81,154.22,-0.58,0.84,-0.02
4:23:55:14:752856,91.47,-34.81,154.12,-0.58,0.84,-0.02
4:23:55:14:752953,91.48,-34.81,154.08,-0.58,0.84,-0.02
4:23:55:14:753065,91.48,-34.81,154.01,-0.58,0.83,-0.02
4:23:55:14:753160,91.48,-34.81,153.94,-0.58,0.84,-0.02
4:23:55:14:753640,91.48,-34.81,153.7,-0.58,0.84,-0.01
4:23:55:15:753768,91.48,-34.81,153.65,-0.58,0.84,-0.02
4:23:55:15:753864,91.49,-34.81,153.63,-0.58,0.84,-0.02
4:23:55:15:753960,91.49,-34.81,153.64,-0.58,0.84,-0.02
4:23:55:15:754055,91.51,-34.8,153.61,-0.58,0.83,-0.02
4:23:55:15:754167,91.51,-34.8,153.61,-0.58,0.84,-0.02
4:23:55:15:754248,91.52,-34.8,153.58,-0.58,0.84,-0.02
4:23:55:15:754567,91.52,-34.8,153.87,-0.58,0.83,-0.01
4:23:55:15:754663,91.52,-34.79,154.03,-0.58,0.84,-0.02
4:23:55:16:754759,91.51,-34.79,154.14,-0.58,0.83,-0.02
4:23:55:16:754870,91.52,-34.78,154.24,-0.58,0.84,-0.02
4:23:55:16:754951,91.53,-34.78,154.31,-0.58,0.83,-0.01
4:23:55:16:755047,91.54,-34.78,154.4,-0.58,0.84,-0.01
4:23:55:16:755159,91.54,-34.78,154.49,-0.58,0.83,-0.02
4:23:55:16:755654,91.53,-34.79,154.85,-0.58,0.84,-0.01
4:23:55:17:755766,91.54,-34.79,154.9,-0.58,0.83,-0.02
4:23:55:17:755862,91.53,-34.79,154.94,-0.58,0.83,-0.02
4:23:55:17:755958,91.53,-34.8,154.99,-0.57,0.83,-0.01
4:23:55:17:756054,91.53,-34.8,154.88,-0.58,0.83,-0.02
4:23:55:17:756150,91.51,-34.8,154.83,-0.58,0.84,-0.02
4:23:55:17:756262,91.51,-34.79,154.85,-0.58,0.84,-0.02
4:23:55:17:756566,91.49,-34.81,154.66,-0.58,0.84,-0.02
4:23:55:17:756664,91.48,-34.8,154.68,-0.58,0.84,-0.02
4:23:55:18:756773,91.49,-34.8,154.68,-0.58,0.84,-0.02
4:23:55:18:756869,91.48,-34.8,154.73,-0.58,0.83,-0.02
4:23:55:18:756965,91.48,-34.8,154.74,-0.58,0.83,-0.02
4:23:55:18:757061,91.49,-34.8,154.78,-0.58,0.83,-0.02
4:23:55:18:757157,91.5,-34.79,154.79,-0.58,0.84,-0.02
4:23:55:18:757653,91.5,-34.78,154.9,-0.58,0.83,-0.02
4:23:55:19:757764,91.51,-34.79,154.89,-0.58,0.84,-0.02
4:23:55:19:757860,91.51,-34.79,154.9,-0.58,0.84,-0.01
4:23:55:19:757972,91.51,-34.79,154.91,-0.58,0.84,-0.01
4:23:55:19:758052,91.51,-34.8,154.89,-0.58,0.84,-0.02
4:23:55:19:758164,91.51,-34.79,154.9,-0.58,0.83,-0.01
4:23:55:19:758260,91.5,-34.8,154.88,-0.58,0.84,-0.01
4:23:55:19:758564,91.5,-34.79,154.94,-0.58,0.83,-0.02
4:23:55:19:758660,91.48,-34.8,154.92,-0.58,0.84,-0.02
4:23:55:20:758756,91.5,-34.8,154.93,-0.58,0.83,-0.02
4:23:55:20:758868,91.5,-34.81,154.93,-0.58,0.84,-0.01
4:23:55:20:758964,91.5,-34.8,154.94,-0.58,0.84,-0.02
4:23:55:20:759060,91.51,-34.81,154.92,-0.58,0.83,-0.02
4:23:55:20:759156,91.51,-34.8,154.96,-0.58,0.84,-0.02
4:23:55:20:759651,91.51,-34.81,154.94,-0.58,0.83,-0.02
4:23:55:21:759763,91.52,-34.81,154.93,-0.58,0.84,-0.02
4:23:55:21:759859,91.5,-34.81,154.95,-0.58,0.84,-0.02
4:23:55:21:759971,91.51,-34.8,154.96,-0.58,0.84,-0.02
4:23:55:21:760051,91.51,-34.81,154.95,-0.58,0.84,-0.02
4:23:55:21:760163,91.51,-34.81,154.94,-0.58,0.83,-0.02
4:23:55:21:760259,91.51,-34.8,154.94,-0.57,0.83,-0.01
4:23:55:21:760562,91.48,-34.8,154.95,-0.58,0.84,-0.02
4:23:55:21:760658,91.49,-34.8,154.94,-0.58,0.84,-0.02
4:23:55:22:760754,91.49,-34.79,154.94,-0.58,0.84,-0.02
4:23:55:22:760866,91.48,-34.81,154.95,-0.58,0.84,-0.01
4:23:55:22:760962,91.49,-34.8,154.95,-0.58,0.84,-0.02
4:23:55:22:761058,91.5,-34.8,154.94,-0.58,0.84,-0.02
4:23:55:22:761154,91.49,-34.81,154.94,-0.58,0.84,-0.02
4:23:55:22:761666,91.48,-34.82,154.95,-0.58,0.84,-0.01
4:23:55:23:761762,91.49,-34.81,154.96,-0.58,0.84,-0.01
4:23:55:23:761873,91.49,-34.82,154.95,-0.58,0.84,-0.01
4:23:55:23:761953,91.48,-34.82,154.97,-0.58,0.84,-0.02
4:23:55:23:762065,91.48,-34.82,154.99,-0.58,0.84,-0.02
4:23:55:23:762161,91.48,-34.81,155.0,-0.58,0.84,-0.02
4:23:55:23:762257,91.47,-34.82,155.03,-0.58,0.84,-0.02
4:23:55:23:762565,91.49,-34.85,154.85,-0.58,0.85,-0.02
4:23:55:23:762657,91.48,-34.85,154.85,-0.58,0.84,-0.02
4:23:55:24:762769,91.47,-34.84,154.89,-0.58,0.83,-0.01
4:23:55:24:762849,91.48,-34.84,154.94,-0.58,0.83,-0.01
4:23:55:24:762960,91.49,-34.84,154.97,-0.58,0.84,-0.02
4:23:55:24:763056,91.49,-34.83,154.99,-0.58,0.84,-0.01
4:23:55:24:763153,91.48,-34.83,155.03,-0.58,0.84,-0.01
4:23:55:24:763663,91.48,-34.81,155.26,-0.58,0.84,-0.02
4:23:55:25:763760,91.49,-34.81,155.26,-0.58,0.84,-0.02
4:23:55:25:763856,91.49,-34.81,155.26,-0.58,0.84,-0.02
4:23:55:25:763952,91.49,-34.81,155.26,-0.58,0.84,-0.01
4:23:55:25:764064,91.49,-34.81,155.27,-0.58,0.84,-0.01
4:23:55:25:764160,91.49,-34.81,155.29,-0.58,0.83,-0.01
4:23:55:25:764256,91.49,-34.81,155.27,-0.58,0.84,-0.02
4:23:55:25:764560,91.53,-34.8,155.67,-0.58,0.84,-0.02
4:23:55:25:764655,91.54,-34.8,155.8,-0.58,0.84,-0.02
4:23:55:26:764767,91.54,-34.8,155.89,-0.58,0.84,-0.02
4:23:55:26:764863,91.54,-34.8,155.98,-0.58,0.83,-0.01
4:23:55:26:764960,91.53,-34.79,156.1,-0.58,0.84,-0.02
4:23:55:26:765055,91.54,-34.79,156.2,-0.58,0.84,-0.02
4:23:55:26:765151,91.53,-34.8,156.26,-0.58,0.83,-0.02
4:23:55:26:765662,91.51,-34.8,156.55,-0.58,0.84,-0.01
4:23:55:27:765759,91.5,-34.8,156.57,-0.58,0.83,-0.01
4:23:55:27:765854,91.51,-34.8,156.65,-0.58,0.83,-0.02
4:23:55:27:765966,91.5,-34.8,156.71,-0.58,0.84,-0.02
4:23:55:27:766062,91.5,-34.8,156.7,-0.57,0.83,-0.02
4:23:55:27:766158,91.48,-34.82,156.48,-0.58,0.83,-0.02
4:23:55:27:766254,91.48,-34.82,156.4,-0.58,0.84,-0.01
4:23:55:27:766558,91.48,-34.82,156.29,-0.58,0.84,-0.02
4:23:55:27:766654,91.48,-34.82,156.23,-0.58,0.84,-0.02
4:23:55:28:766765,91.48,-34.82,156.22,-0.58,0.84,-0.02
4:23:55:28:766861,91.48,-34.82,156.2,-0.58,0.84,-0.02
4:23:55:28:766957,91.47,-34.81,156.17,-0.58,0.84,-0.02
4:23:55:28:767054,91.49,-34.82,156.14,-0.58,0.84,-0.02
4:23:55:28:767165,91.49,-34.81,156.11,-0.58,0.83,-0.02
4:23:55:28:767661,91.5,-34.8,156.06,-0.58,0.84,-0.02
4:23:55:29:767757,91.5,-34.81,156.08,-0.58,0.83,-0.02
4:23:55:29:767853,91.51,-34.82,156.07,-0.58,0.84,-0.02
4:23:55:29:767965,91.5,-34.82,156.08,-0.58,0.83,-0.02
4:23:55:29:768061,91.5,-34.83,156.06,-0.58,0.84,-0.02
4:23:55:29:768157,91.5,-34.83,156.04,-0.58,0.84,-0.02
4:23:55:29:768252,91.48,-34.83,156.02,-0.58,0.83,-0.02
4:23:55:29:768572,91.49,-34.82,156.0,-0.58,0.83,-0.01
4:23:55:29:768652,91.49,-34.81,156.0,-0.58,0.83,-0.02
4:23:55:30:768764,91.5,-34.82,156.01,-0.58,0.84,-0.02
4:23:55:30:768860,91.51,-34.82,156.02,-0.58,0.84,-0.02
4:23:55:30:768956,91.51,-34.82,156.02,-0.58,0.84,-0.02
4:23:55:30:769052,91.5,-34.82,156.0,-0.58,0.83,-0.02
4:23:55:30:769164,91.5,-34.82,156.01,-0.58,0.83,-0.01
4:23:55:30:769659,91.48,-34.84,155.51,-0.58,0.84,-0.02
4:23:55:31:769755,91.47,-34.84,155.45,-0.58,0.84,-0.02
4:23:55:31:769867,91.48,-34.84,155.43,-0.57,0.84,-0.02
4:23:55:31:769963,91.47,-34.83,155.39,-0.58,0.84,-0.01
4:23:55:31:770059,91.48,-34.83,155.33,-0.58,0.84,-0.02
4:23:55:31:770156,91.48,-34.82,155.33,-0.58,0.84,-0.02
4:23:55:31:770267,91.47,-34.82,155.29,-0.58,0.83,-0.02
4:23:55:31:770570,91.48,-34.82,155.22,-0.58,0.84,-0.02
4:23:55:31:770651,91.48,-34.81,155.2,-0.58,0.84,-0.02
4:23:55:32:770763,91.5,-34.81,155.2,-0.58,0.84,-0.02
4:23:55:32:770859,91.51,-34.81,155.2,-0.58,0.83,-0.02
4:23:55:32:770955,91.49,-34.81,155.18,-0.58,0.84,-0.02
4:23:55:32:771066,91.49,-34.81,155.15,-0.58,0.84,-0.02
4:23:55:32:771163,91.49,-34.82,155.17,-0.56,0.85,-0.01
4:23:55:32:771658,91.54,-34.79,155.4,-0.58,0.84,-0.02
4:23:55:33:771754,91.53,-34.8,155.47,-0.58,0.85,-0.02
4:23:55:33:771850,91.5,-34.8,155.21,-0.58,0.84,-0.01
4:23:55:33:771961,91.49,-34.81,155.02,-0.58,0.84,-0.02
4:23:55:33:772058,91.48,-34.81,154.85,-0.58,0.84,-0.01
4:23:55:33:772154,91.47,-34.82,154.69,-0.58,0.84,-0.02
4:23:55:33:772249,91.46,-34.82,154.53,-0.58,0.84,-0.02
4:23:55:33:772553,91.49,-34.81,154.61,-0.58,0.84,-0.02
4:23:55:33:772665,91.49,-34.81,154.56,-0.58,0.84,-0.02
4:23:55:34:772761,91.51,-34.81,154.6,-0.58,0.83,-0.02
4:23:55:34:772857,91.5,-34.81,154.64,-0.58,0.84,-0.02
4:23:55:34:772953,91.5,-34.8,154.66,-0.58,0.83,-0.02
4:23:55:34:773049,91.5,-34.81,154.7,-0.58,0.83,-0.02
4:23:55:34:773161,91.49,-34.8,154.75,-0.58,0.84,-0.02
4:23:55:34:773657,91.49,-34.79,154.8,-0.58,0.83,-0.02
4:23:55:35:773768,91.49,-34.79,154.8,-0.58,0.84,-0.02
4:23:55:35:773864,91.51,-34.79,154.81,-0.58,0.83,-0.02
4:23:55:35:773960,91.5,-34.8,154.82,-0.58,0.84,-0.02
4:23:55:35:774057,91.49,-34.8,154.82,-0.58,0.84,-0.01
4:23:55:35:774168,91.5,-34.8,154.81,-0.58,0.84,-0.02
4:23:55:35:774263,91.51,-34.79,154.82,-0.58,0.84,-0.02
4:23:55:35:774567,91.52,-34.8,154.86,-0.58,0.83,-0.02
4:23:55:35:774664,91.51,-34.81,154.85,-0.58,0.84,-0.02
4:23:55:36:774760,91.51,-34.81,154.88,-0.58,0.84,-0.02
4:23:55:36:774856,91.51,-34.8,154.89,-0.58,0.84,-0.02
4:23:55:36:774967,91.51,-34.81,154.9,-0.58,0.84,-0.02
4:23:55:36:775063,91.5,-34.81,154.92,-0.58,0.84,-0.02
4:23:55:36:775159,91.5,-34.81,154.93,-0.58,0.84,-0.02
4:23:55:36:775656,91.49,-34.81,154.92,-0.58,0.84,-0.01
4:23:55:37:775766,91.51,-34.81,154.9,-0.58,0.83,-0.02
4:23:55:37:775863,91.51,-34.81,154.82,-0.58,0.83,-0.02
4:23:55:37:775959,91.52,-34.81,154.83,-0.58,0.84,-0.02
4:23:55:37:776055,91.52,-34.81,154.85,-0.58,0.84,-0.02
4:23:55:37:776167,91.51,-34.81,154.89,-0.58,0.84,-0.01
4:23:55:37:776262,91.51,-34.81,154.91,-0.58,0.84,-0.01
4:23:55:37:776550,91.52,-34.81,154.93,-0.58,0.83,-0.02
4:23:55:37:776663,91.52,-34.82,154.96,-0.58,0.84,-0.02
4:23:55:38:776758,91.51,-34.82,154.95,-0.58,0.84,-0.02
4:23:55:38:776870,91.51,-34.82,154.93,-0.58,0.84,-0.02
4:23:55:38:776965,91.51,-34.82,154.94,-0.58,0.84,-0.02
4:23:55:38:777062,91.51,-34.82,154.9,-0.58,0.84,-0.01
4:23:55:38:777158,91.52,-34.81,154.93,-0.58,0.84,-0.02
4:23:55:38:777653,91.5,-34.82,154.91,-0.58,0.83,-0.02
4:23:55:39:777766,91.51,-34.81,154.94,-0.58,0.84,-0.02
4:23:55:39:777861,91.51,-34.81,154.91,-0.57,0.84,-0.02
4:23:55:39:777973,91.5,-34.82,154.81,-0.58,0.84,-0.01
4:23:55:39:778069,91.51,-34.82,154.86,-0.58,0.83,-0.02
4:23:55:39:778165,91.5,-34.82,154.92,-0.58,0.84,-0.02
4:23:55:39:778261,91.5,-34.82,154.96,-0.58,0.83,-0.02
4:23:55:39:778565,91.5,-34.82,154.99,-0.58,0.84,-0.02
4:23:55:39:778660,91.5,-34.82,155.02,-0.58,0.84,-0.02
4:23:55:40:778773,91.51,-34.82,155.07,-0.58,0.83,-0.02
4:23:55:40:778853,91.51,-34.81,155.09,-0.58,0.84,-0.02
4:23:55:40:778964,91.51,-34.82,155.14,-0.58,0.83,-0.02
4:23:55:40:779060,91.5,-34.82,155.16,-0.58,0.84,-0.01
4:23:55:40:779157,91.51,-34.81,155.15,-0.58,0.84,-0.01
4:23:55:40:779652,91.53,-34.8,155.18,-0.58,0.84,-0.02
4:23:55:41:779748,91.52,-34.8,155.2,-0.58,0.83,-0.02
4:23:55:41:779844,91.53,-34.8,155.24,-0.58,0.83,-0.01
4:23:55:41:779956,91.53,-34.8,155.26,-0.58,0.83,-0.02
4:23:55:41:780052,91.52,-34.8,155.26,-0.58,0.84,-0.01
4:23:55:41:780163,91.51,-34.8,155.31,-0.58,0.84,-0.02
4:23:55:41:780260,91.51,-34.8,155.31,-0.58,0.84,-0.02
4:23:55:41:780563,91.51,-34.81,155.28,-0.58,0.84,-0.02
4:23:55:41:780659,91.52,-34.82,155.28,-0.58,0.84,-0.02
4:23:55:42:780755,91.52,-34.81,155.29,-0.58,0.84,-0.02
4:23:55:42:780867,91.51,-34.82,155.28,-0.58,0.84,-0.02
4:23:55:42:780963,91.52,-34.81,155.3,-0.58,0.84,-0.02
4:23:55:42:781059,91.52,-34.81,155.32,-0.58,0.84,-0.02
4:23:55:42:781155,91.52,-34.82,155.3,-0.58,0.83,-0.02
4:23:55:42:781651,91.51,-34.82,155.25,-0.58,0.84,-0.02
4:23:55:43:781763,91.5,-34.83,154.96,-0.58,0.84,-0.02
4:23:55:43:781858,91.48,-34.83,154.7,-0.58,0.83,-0.02
4:23:55:43:781955,91.46,-34.83,154.44,-0.58,0.84,-0.02
4:23:55:43:782050,91.46,-34.83,154.22,-0.58,0.84,-0.01
4:23:55:43:782162,91.46,-34.83,154.03,-0.58,0.83,-0.02
4:23:55:43:782258,91.46,-34.83,153.86,-0.58,0.84,-0.02
4:23:55:43:782562,91.47,-34.83,153.4,-0.58,0.83,-0.02
4:23:55:43:782658,91.47,-34.83,153.27,-0.58,0.83,-0.02
4:23:55:44:782769,91.46,-34.84,153.16,-0.58,0.84,-0.01
4:23:55:44:782834,91.46,-34.83,153.07,-0.58,0.83,-0.01
4:23:55:44:782961,91.46,-34.82,153.01,-0.58,0.83,-0.02
4:23:55:44:783057,91.46,-34.82,152.88,-0.58,0.84,-0.02
4:23:55:44:783169,91.48,-34.82,152.79,-0.58,0.84,-0.02
4:23:55:44:783649,91.48,-34.82,152.54,-0.58,0.84,-0.02
4:23:55:45:783745,91.49,-34.82,152.48,-0.58,0.84,-0.02
4:23:55:45:783841,91.5,-34.84,152.43,-0.58,0.84,-0.02
4:23:55:45:783953,91.49,-34.83,152.4,-0.58,0.84,-0.02
4:23:55:45:784064,91.48,-34.82,152.37,-0.58,0.83,-0.02
4:23:55:45:784161,91.49,-34.82,152.32,-0.58,0.84,-0.02
4:23:55:45:784257,91.48,-34.82,152.33,-0.58,0.84,-0.01
4:23:55:45:784560,91.49,-34.81,152.3,-0.58,0.83,-0.02
4:23:55:45:784672,91.49,-34.81,152.27,-0.58,0.83,-0.02
4:23:55:46:784752,91.49,-34.81,152.26,-0.58,0.84,-0.02
4:23:55:46:784864,91.49,-34.81,152.23,-0.58,0.83,-0.02
4:23:55:46:784960,91.5,-34.81,152.21,-0.58,0.84,-0.01
4:23:55:46:785056,91.5,-34.82,152.21,-0.58,0.84,-0.01
4:23:55:46:785152,91.51,-34.82,152.16,-0.58,0.84,-0.02
4:23:55:46:785664,91.59,-34.79,153.16,-0.58,0.84,-0.02
4:23:55:47:785759,91.6,-34.78,153.4,-0.58,0.84,-0.02
4:23:55:47:785856,91.6,-34.78,153.6,-0.58,0.83,-0.01
4:23:55:47:785952,91.57,-34.79,153.73,-0.58,0.84,-0.02
4:23:55:47:786047,91.58,-34.79,153.85,-0.58,0.84,-0.02
4:23:55:47:786159,91.58,-34.78,153.99,-0.58,0.83,-0.02
4:23:55:47:786271,91.57,-34.79,154.07,-0.58,0.84,-0.02
4:23:55:47:786559,91.55,-34.8,154.02,-0.59,0.84,-0.02
4:23:55:47:786655,91.54,-34.8,154.06,-0.58,0.84,-0.02
4:23:55:48:786751,91.55,-34.8,154.18,-0.58,0.84,-0.02
4:23:55:48:786847,91.55,-34.8,154.27,-0.58,0.84,-0.02
4:23:55:48:786959,91.56,-34.8,154.37,-0.58,0.84,-0.02
4:23:55:48:787055,91.57,-34.8,154.47,-0.58,0.84,-0.02
4:23:55:48:787166,91.55,-34.8,154.55,-0.58,0.84,-0.02
4:23:55:48:787662,91.56,-34.81,154.83,-0.58,0.84,-0.02
4:23:55:49:787774,91.55,-34.8,154.88,-0.57,0.83,-0.02
4:23:55:49:787854,91.55,-34.8,154.94,-0.58,0.84,-0.02
4:23:55:49:787966,91.55,-34.8,154.98,-0.58,0.83,-0.02
4:23:55:49:788062,91.54,-34.8,155.01,-0.58,0.84,-0.02
4:23:55:49:788158,91.53,-34.8,155.05,-0.58,0.84,-0.02
4:23:55:49:788254,91.54,-34.81,155.06,-0.58,0.84,-0.02
4:23:55:49:788541,91.54,-34.8,155.14,-0.58,0.83,-0.02
4:23:55:49:788638,91.54,-34.81,155.16,-0.58,0.84,-0.02
4:23:55:50:788749,91.54,-34.81,155.16,-0.58,0.84,-0.02
4:23:55:50:788845,91.53,-34.81,155.16,-0.58,0.84,-0.02
4:23:55:50:788957,91.54,-34.81,155.14,-0.58,0.83,-0.02
4:23:55:50:789053,91.52,-34.81,155.13,-0.58,0.84,-0.02
4:23:55:50:789165,91.52,-34.82,155.1,-0.58,0.84,-0.02
4:23:55:50:789645,91.51,-34.82,154.99,-0.58,0.83,-0.02
4:23:55:51:789756,91.5,-34.83,154.85,-0.58,0.84,-0.02
4:23:55:51:789852,91.49,-34.83,154.72,-0.58,0.83,-0.02
4:23:55:51:789964,91.49,-34.83,154.62,-0.58,0.84,-0.02
4:23:55:51:790060,91.48,-34.83,154.51,-0.58,0.84,-0.02
4:23:55:51:790156,91.47,-34.84,154.43,-0.58,0.83,-0.02
4:23:55:51:790236,91.48,-34.83,154.32,-0.58,0.84,-0.02
4:23:55:51:790556,91.47,-34.82,154.1,-0.58,0.84,-0.02
4:23:55:51:790652,91.47,-34.82,154.02,-0.58,0.84,-0.02
4:23:55:52:790763,91.47,-34.82,153.95,-0.58,0.83,-0.02
4:23:55:52:790860,91.48,-34.82,153.91,-0.58,0.84,-0.02
4:23:55:52:790955,91.48,-34.81,153.88,-0.57,0.84,-0.02
4:23:55:52:791052,91.48,-34.81,153.87,-0.58,0.84,-0.02
4:23:55:52:791147,91.47,-34.81,153.84,-0.58,0.83,-0.01
4:23:55:52:791643,91.48,-34.81,153.76,-0.58,0.83,-0.02
4:23:55:53:791739,91.49,-34.81,153.72,-0.58,0.83,-0.02
4:23:55:53:791867,91.49,-34.81,153.74,-0.58,0.84,-0.02
4:23:55:53:791947,91.48,-34.81,153.74,-0.58,0.83,-0.01
4:23:55:53:792058,91.47,-34.81,153.7,-0.58,0.84,-0.02
4:23:55:53:792154,91.47,-34.81,153.73,-0.58,0.84,-0.02
4:23:55:53:792250,91.49,-34.81,153.94,-0.58,0.84,-0.02
4:23:55:53:792538,91.54,-34.8,154.5,-0.58,0.84,-0.02
4:23:55:53:792650,91.55,-34.79,154.67,-0.58,0.83,-0.02
4:23:55:54:792762,91.55,-34.79,154.81,-0.57,0.84,-0.02
4:23:55:54:792858,91.54,-34.79,154.97,-0.58,0.84,-0.02
4:23:55:54:792954,91.55,-34.79,155.1,-0.58,0.84,-0.02
4:23:55:54:793050,91.54,-34.8,155.25,-0.58,0.84,-0.02
4:23:55:54:793154,91.53,-34.8,155.34,-0.58,0.83,-0.02
4:23:55:54:793650,91.53,-34.8,155.68,-0.58,0.83,-0.02
4:23:55:55:793761,91.53,-34.8,155.72,-0.58,0.84,-0.01
4:23:55:55:793857,91.53,-34.8,155.75,-0.58,0.83,-0.02
4:23:55:55:793953,91.53,-34.8,155.81,-0.58,0.83,-0.02
4:23:55:55:794049,91.53,-34.8,155.86,-0.58,0.83,-0.02
4:23:55:55:794145,91.53,-34.81,155.9,-0.58,0.84,-0.02
4:23:55:55:794256,91.52,-34.81,155.94,-0.58,0.84,-0.02
4:23:55:55:794561,91.52,-34.82,156.01,-0.58,0.83,-0.02
4:23:55:55:794657,91.52,-34.82,156.0,-0.58,0.83,-0.02
4:23:55:56:794752,91.53,-34.81,156.01,-0.58,0.84,-0.01
4:23:55:56:794864,91.52,-34.81,156.04,-0.58,0.83,-0.02
4:23:55:56:794960,91.52,-34.81,156.06,-0.58,0.84,-0.02
4:23:55:56:795056,91.5,-34.81,156.05,-0.58,0.83,-0.02
4:23:55:56:795152,91.5,-34.85,155.89,-0.57,0.84,-0.01
4:23:55:56:795648,91.51,-34.83,155.96,-0.58,0.84,-0.01
4:23:55:57:795744,91.49,-34.84,155.58,-0.58,0.83,-0.02
4:23:55:57:795855,91.47,-34.85,155.31,-0.58,0.84,-0.02
4:23:55:57:795952,91.46,-34.85,155.19,-0.58,0.83,-0.02
4:23:55:57:796048,91.47,-34.84,155.1,-0.58,0.84,-0.02
4:23:55:57:796144,91.47,-34.84,154.99,-0.58,0.83,-0.02
4:23:55:57:796239,91.47,-34.84,154.89,-0.58,0.83,-0.02
4:23:55:57:796559,91.47,-34.84,154.69,-0.58,0.84,-0.02
4:23:55:57:796639,91.48,-34.84,154.63,-0.58,0.84,-0.02
4:23:55:58:796735,91.49,-34.84,154.57,-0.58,0.84,-0.02
4:23:55:58:796863,91.48,-34.84,154.51,-0.58,0.84,-0.01
4:23:55:58:796959,91.48,-34.85,154.44,-0.58,0.84,-0.02
4:23:55:58:797055,91.47,-34.84,154.38,-0.58,0.83,-0.02
4:23:55:58:797151,91.47,-34.84,154.29,-0.58,0.84,-0.02
4:23:55:58:797663,91.48,-34.84,154.11,-0.58,0.83,-0.02
4:23:55:59:797758,91.49,-34.84,154.07,-0.58,0.84,-0.02
4:23:55:59:797854,91.5,-34.83,154.07,-0.58,0.84,-0.02
4:23:55:59:797966,91.5,-34.83,154.07,-0.58,0.84,-0.02
4:23:55:59:798046,91.5,-34.82,154.08,-0.58,0.84,-0.02
4:23:55:59:798158,91.5,-34.82,154.08,-0.58,0.84,-0.02
4:23:55:59:798542,91.53,-34.83,154.34,-0.58,0.84,-0.01
4:23:55:59:798638,91.53,-34.82,154.49,-0.58,0.84,-0.02
4:23:56:0:798749,91.53,-34.82,154.55,-0.58,0.84,-0.02
4:23:56:0:798862,91.53,-34.83,154.78,-0.58,0.83,-0.03
4:23:56:0:798957,91.53,-34.84,154.84,-0.58,0.82,-0.03
4:23:56:0:799053,91.54,-34.82,154.95,-0.58,0.84,-0.02
4:23:56:0:799149,91.55,-34.82,155.13,-0.58,0.83,-0.02
4:23:56:0:799645,91.52,-34.82,155.14,-0.58,0.83,-0.02
4:23:56:1:799741,91.51,-34.83,155.1,-0.58,0.84,-0.02
4:23:56:1:799853,91.49,-34.83,154.97,-0.58,0.84,-0.02
4:23:56:1:799948,91.49,-34.84,154.85,-0.58,0.83,-0.02
4:23:56:1:800045,91.47,-34.84,154.73,-0.58,0.84,-0.02
4:23:56:1:800141,91.47,-34.83,154.62,-0.57,0.83,-0.0
4:23:56:1:800252,91.48,-34.83,154.59,-0.58,0.84,-0.02
4:23:56:1:800540,91.5,-34.82,154.51,-0.58,0.84,-0.02
4:23:56:1:800637,91.5,-34.82,154.46,-0.58,0.84,-0.02
4:23:56:2:800732,91.49,-34.82,154.46,-0.58,0.84,-0.01
4:23:56:2:800860,91.49,-34.83,154.39,-0.58,0.84,-0.02
4:23:56:2:800956,91.48,-34.83,154.35,-0.58,0.83,-0.02
4:23:56:2:801051,91.48,-34.82,154.33,-0.58,0.83,-0.02
4:23:56:2:801153,91.47,-34.82,154.31,-0.58,0.84,-0.02
4:23:56:2:801649,91.48,-34.82,154.23,-0.58,0.84,-0.02
4:23:56:3:801760,91.47,-34.83,154.22,-0.58,0.84,-0.01
4:23:56:3:801856,91.47,-34.82,154.25,-0.58,0.83,-0.02
4:23:56:3:801936,91.5,-34.83,154.42,-0.57,0.83,-0.02
4:23:56:3:802032,91.5,-34.83,154.35,-0.58,0.84,-0.02
4:23:56:3:802160,91.51,-34.82,154.42,-0.58,0.83,-0.02
4:23:56:3:802256,91.51,-34.82,154.52,-0.58,0.84,-0.01
4:23:56:3:802544,91.54,-34.81,154.8,-0.58,0.84,-0.02
4:23:56:3:802640,91.53,-34.82,154.78,-0.58,0.84,-0.02
4:23:56:4:802736,91.53,-34.82,154.76,-0.58,0.83,-0.02
4:23:56:4:802847,91.52,-34.82,154.76,-0.58,0.84,-0.02
4:23:56:4:802959,91.51,-34.81,154.79,-0.58,0.84,-0.02
4:23:56:4:803056,91.5,-34.83,154.77,-0.58,0.84,-0.01
4:23:56:4:803160,91.51,-34.81,154.97,-0.58,0.84,-0.02
4:23:56:4:803655,91.56,-34.79,155.74,-0.58,0.84,-0.01
4:23:56:5:803752,91.55,-34.79,155.83,-0.58,0.83,-0.01
4:23:56:5:803848,91.55,-34.79,155.95,-0.58,0.84,-0.02
4:23:56:5:803959,91.55,-34.8,156.02,-0.58,0.84,-0.02
4:23:56:5:804055,91.56,-34.8,156.08,-0.58,0.84,-0.02
4:23:56:5:804151,91.56,-34.79,156.15,-0.58,0.84,-0.02
4:23:56:5:804247,91.55,-34.79,156.24,-0.58,0.83,-0.02
4:23:56:5:804535,91.49,-34.8,156.02,-0.58,0.84,-0.02
4:23:56:5:804631,91.48,-34.8,155.88,-0.58,0.84,-0.02
4:23:56:6:804759,91.48,-34.8,155.74,-0.58,0.83,-0.01
4:23:56:6:804855,91.47,-34.81,155.62,-0.58,0.84,-0.02
4:23:56:6:804951,91.47,-34.82,155.5,-0.58,0.84,-0.01
4:23:56:6:805047,91.46,-34.82,155.4,-0.58,0.83,-0.01
4:23:56:6:805155,91.47,-34.82,155.29,-0.58,0.84,-0.02
4:23:56:6:805650,91.47,-34.82,154.96,-0.58,0.84,-0.02
4:23:56:7:805746,91.46,-34.81,154.88,-0.58,0.83,-0.02
4:23:56:7:805858,91.47,-34.82,154.82,-0.58,0.84,-0.02
4:23:56:7:805954,91.47,-34.82,154.84,-0.58,0.84,-0.02
4:23:56:7:806050,91.46,-34.82,154.79,-0.58,0.83,-0.02
4:23:56:7:806147,91.48,-34.82,154.74,-0.58,0.83,-0.02
4:23:56:7:806258,91.48,-34.83,154.7,-0.58,0.83,-0.02
4:23:56:7:806546,91.49,-34.82,154.61,-0.58,0.84,-0.02
4:23:56:7:806658,91.5,-34.82,154.6,-0.58,0.83,-0.02
4:23:56:8:806738,91.5,-34.82,154.58,-0.58,0.83,-0.02
4:23:56:8:806849,91.5,-34.82,154.52,-0.58,0.84,-0.02
4:23:56:8:806946,91.49,-34.82,154.5,-0.58,0.84,-0.02
4:23:56:8:807057,91.49,-34.81,154.5,-0.58,0.84,-0.02
4:23:56:8:807153,91.49,-34.82,154.46,-0.58,0.84,-0.02
4:23:56:8:807649,91.51,-34.81,154.59,-0.58,0.84,-0.02
4:23:56:9:807761,91.49,-34.82,154.5,-0.58,0.84,-0.02
4:23:56:9:807856,91.48,-34.82,154.34,-0.58,0.84,-0.02
4:23:56:9:807953,91.47,-34.83,154.23,-0.58,0.84,-0.02
4:23:56:9:808048,91.47,-34.83,154.1,-0.58,0.84,-0.02
4:23:56:9:808145,91.46,-34.83,154.02,-0.58,0.83,-0.02
4:23:56:9:808240,91.45,-34.84,153.93,-0.58,0.83,-0.02
4:23:56:9:808560,91.48,-34.84,153.78,-0.58,0.84,-0.02
4:23:56:9:808656,91.5,-34.83,153.92,-0.58,0.84,-0.03
4:23:56:10:808752,91.51,-34.83,154.04,-0.58,0.83,-0.02
4:23:56:10:808848,91.51,-34.82,154.16,-0.58,0.84,-0.01
4:23:56:10:808960,91.52,-34.82,154.27,-0.58,0.84,-0.02
4:23:56:10:809055,91.51,-34.81,154.33,-0.58,0.84,-0.01
4:23:56:10:809151,91.52,-34.81,154.41,-0.58,0.84,-0.02
4:23:56:10:809663,91.5,-34.82,154.62,-0.58,0.84,-0.01
4:23:56:11:809760,91.5,-34.82,154.67,-0.58,0.84,-0.02
4:23:56:11:809855,91.5,-34.82,154.7,-0.58,0.84,-0.02
4:23:56:11:809951,91.51,-34.81,154.76,-0.58,0.84,-0.02
4:23:56:11:810047,91.52,-34.81,154.79,-0.58,0.83,-0.02
4:23:56:11:810143,91.5,-34.81,154.81,-0.58,0.84,-0.02
4:23:56:11:810239,91.5,-34.81,154.84,-0.58,0.84,-0.02
4:23:56:11:810559,91.51,-34.82,154.9,-0.58,0.84,-0.02
4:23:56:11:810655,91.5,-34.83,154.88,-0.58,0.83,-0.01
4:23:56:12:810750,91.5,-34.82,154.89,-0.58,0.84,-0.02
4:23:56:12:810846,91.49,-34.83,154.92,-0.58,0.83,-0.02
4:23:56:12:810943,91.49,-34.83,154.9,-0.58,0.84,-0.01
4:23:56:12:811038,91.49,-34.82,154.92,-0.58,0.84,-0.02
4:23:56:12:811150,91.49,-34.82,154.91,-0.57,0.83,-0.03
4:23:56:12:811646,91.53,-34.82,155.21,-0.58,0.83,-0.01
4:23:56:13:811742,91.54,-34.82,155.25,-0.58,0.84,-0.02
4:23:56:13:811853,91.55,-34.81,155.3,-0.56,0.83,-0.02
4:23:56:13:811949,91.54,-34.82,155.25,-0.58,0.84,-0.02
4:23:56:13:812046,91.53,-34.81,155.31,-0.58,0.83,-0.02
4:23:56:13:812157,91.53,-34.82,155.2,-0.59,0.84,-0.03
4:23:56:13:812253,91.5,-34.83,155.1,-0.58,0.84,-0.02
4:23:56:13:812542,91.48,-34.85,154.82,-0.58,0.84,-0.02
4:23:56:13:812637,91.48,-34.85,154.76,-0.58,0.84,-0.02
4:23:56:14:812765,91.47,-34.85,154.73,-0.58,0.84,-0.01
4:23:56:14:812861,91.48,-34.84,154.67,-0.58,0.84,-0.02
4:23:56:14:812957,91.47,-34.84,154.62,-0.58,0.83,-0.02
4:23:56:14:813053,91.48,-34.84,154.56,-0.58,0.84,-0.02
4:23:56:14:813162,91.49,-34.84,154.5,-0.58,0.83,-0.02
4:23:56:14:813642,91.49,-34.85,154.27,-0.58,0.83,-0.02
4:23:56:15:813737,91.48,-34.85,154.25,-0.58,0.83,-0.02
4:23:56:15:813849,91.49,-34.84,154.24,-0.58,0.84,-0.02
4:23:56:15:813945,91.49,-34.84,154.21,-0.58,0.83,-0.02
4:23:56:15:814057,91.48,-34.84,154.17,-0.58,0.84,-0.02
4:23:56:15:814153,91.48,-34.83,154.19,-0.58,0.83,-0.02
4:23:56:15:814249,91.48,-34.83,154.21,-0.58,0.84,-0.02
4:23:56:15:814569,91.49,-34.84,154.14,-0.58,0.84,-0.02
4:23:56:15:814664,91.49,-34.84,154.15,-0.58,0.84,-0.02
4:23:56:16:814760,91.47,-34.85,154.13,-0.58,0.83,-0.02
4:23:56:16:814856,91.47,-34.85,154.1,-0.58,0.84,-0.02
4:23:56:16:814952,91.49,-34.85,154.08,-0.58,0.84,-0.02
4:23:56:16:815048,91.52,-34.83,154.16,-0.58,0.84,-0.03
4:23:56:16:815151,91.52,-34.84,154.2,-0.58,0.84,-0.02
4:23:56:16:815663,91.53,-34.81,154.59,-0.58,0.83,-0.02
4:23:56:17:815759,91.55,-34.8,154.8,-0.58,0.83,-0.02
4:23:56:17:815855,91.56,-34.82,154.87,-0.58,0.86,-0.01
4:23:56:17:815951,91.54,-34.82,154.84,-0.58,0.83,-0.02
4:23:56:17:816046,91.52,-34.81,154.74,-0.58,0.83,-0.02
4:23:56:17:816143,91.52,-34.81,154.69,-0.58,0.84,-0.02
4:23:56:17:816254,91.51,-34.81,154.65,-0.58,0.84,-0.01
4:23:56:17:816558,91.51,-34.82,154.55,-0.58,0.84,-0.01
4:23:56:17:816654,91.5,-34.82,154.55,-0.58,0.84,-0.02
4:23:56:18:816750,91.5,-34.82,154.55,-0.58,0.84,-0.02
4:23:56:18:816846,91.5,-34.82,154.52,-0.58,0.84,-0.01
4:23:56:18:816942,91.48,-34.83,154.51,-0.58,0.84,-0.01
4:23:56:18:817038,91.48,-34.84,154.46,-0.58,0.83,-0.02
4:23:56:18:817150,91.47,-34.84,154.44,-0.58,0.83,-0.02
4:23:56:18:817661,91.51,-34.84,154.32,-0.58,0.84,-0.02
4:23:56:19:817758,91.51,-34.84,154.29,-0.58,0.83,-0.02
4:23:56:19:817853,91.51,-34.83,154.31,-0.58,0.84,-0.02
4:23:56:19:817949,91.51,-34.84,154.26,-0.58,0.83,-0.02
4:23:56:19:818045,91.52,-34.84,154.25,-0.58,0.83,-0.02
4:23:56:19:818141,91.52,-34.83,154.21,-0.58,0.83,-0.02
4:23:56:19:818252,91.53,-34.83,154.23,-0.58,0.84,-0.02
4:23:56:19:818541,91.51,-34.83,154.24,-0.58,0.83,-0.02
4:23:56:19:818652,91.51,-34.83,154.24,-0.58,0.84,-0.02
4:23:56:20:818749,91.51,-34.84,154.21,-0.58,0.84,-0.02
4:23:56:20:818844,91.5,-34.84,154.22,-0.58,0.84,-0.02
4:23:56:20:818957,91.51,-34.83,154.2,-0.58,0.83,-0.02
4:23:56:20:819052,91.51,-34.83,154.19,-0.58,0.84,-0.02
4:23:56:20:819148,91.5,-34.83,154.21,-0.58,0.83,-0.02
4:23:56:20:819659,91.47,-34.83,153.57,-0.58,0.84,-0.02
4:23:56:21:819740,91.47,-34.84,153.42,-0.58,0.84,-0.02
4:23:56:21:819851,91.47,-34.84,153.28,-0.58,0.83,-0.02
4:23:56:21:819948,91.48,-34.85,153.18,-0.58,0.84,-0.02
4:23:56:21:820043,91.48,-34.85,153.11,-0.58,0.84,-0.02
4:23:56:21:820140,91.47,-34.85,152.9,-0.58,0.83,-0.02
4:23:56:21:820251,91.45,-34.85,152.71,-0.58,0.84,-0.01
4:23:56:21:820555,91.44,-34.85,152.23,-0.58,0.83,-0.02
4:23:56:21:820651,91.43,-34.85,152.1,-0.58,0.83,-0.02
4:23:56:22:820747,91.44,-34.85,151.97,-0.58,0.84,-0.02
4:23:56:22:820843,91.46,-34.84,151.88,-0.58,0.83,-0.02
4:23:56:22:820939,91.47,-34.84,151.78,-0.58,0.83,-0.02
4:23:56:22:821034,91.47,-34.84,151.69,-0.58,0.84,-0.02
4:23:56:22:821658,91.48,-34.85,151.4,-0.58,0.84,-0.02
4:23:56:23:821755,91.47,-34.85,151.38,-0.58,0.83,-0.02
4:23:56:23:821850,91.46,-34.85,151.36,-0.58,0.84,-0.01
4:23:56:23:821946,91.48,-34.85,151.36,-0.58,0.84,-0.03
4:23:56:23:822057,91.48,-34.85,151.37,-0.58,0.84,-0.01
4:23:56:23:822154,91.48,-34.85,151.38,-0.58,0.83,-0.02
4:23:56:23:822250,91.48,-34.85,151.35,-0.58,0.83,-0.02
4:23:56:23:822553,91.49,-34.86,151.21,-0.58,0.84,-0.02
4:23:56:23:822650,91.48,-34.86,151.19,-0.58,0.83,-0.01
4:23:56:24:822746,91.54,-34.78,151.14,-0.52,0.78,-0.1
4:23:56:24:822842,91.47,-34.79,151.14,-0.56,0.83,-0.03
4:23:56:24:822938,91.46,-34.92,151.43,-0.62,0.81,-0.0
4:23:56:24:823049,91.51,-34.81,151.75,-0.62,0.84,-0.02
4:23:56:24:823641,90.91,-10.9,156.14,-0.26,0.97,-0.01
4:23:56:25:823753,90.67,-10.75,157.22,-0.18,0.97,-0.03
4:23:56:25:823848,90.48,-10.05,159.23,-0.2,1.02,-0.03
4:23:56:25:823945,90.26,-7.28,160.51,-0.19,1.26,-0.07
4:23:56:25:824056,89.83,-2.0,160.68,-0.02,0.95,0.01
4:23:56:25:824168,89.51,-0.04,161.59,-0.07,1.01,-0.05
4:23:56:25:824264,89.15,0.02,160.86,0.01,1.03,-0.02
4:23:56:25:824552,87.14,6.19,158.92,0.17,0.96,0.01
4:23:56:25:824664,86.12,10.06,158.05,0.17,1.06,0.01
4:23:56:26:824760,84.84,14.45,156.89,0.27,0.9,0.0
4:23:56:26:824856,83.94,16.63,156.75,0.36,0.92,0.0
4:23:56:26:824935,83.48,17.35,156.16,0.35,0.95,0.05
4:23:56:26:825064,83.31,17.41,155.52,0.35,0.93,0.04
4:23:56:26:825152,83.5,16.16,154.79,0.3,0.91,-0.01
4:23:56:26:825647,90.61,-37.44,154.73,-0.56,0.84,-0.07
4:23:56:27:825743,94.29,-38.5,153.52,-0.62,0.81,-0.15
4:23:56:27:825840,98.41,-39.01,151.94,-0.59,0.83,-0.14
4:23:56:27:825951,102.13,-39.24,149.47,-0.61,0.77,-0.18
4:23:56:27:826047,105.17,-40.33,146.38,-0.61,0.75,-0.29
4:23:56:27:826143,110.13,-43.62,140.16,-0.67,0.83,-0.27
4:23:56:27:826255,115.79,-46.44,132.92,-0.77,0.66,-0.31
4:23:56:27:826559,125.86,-46.26,126.28,-0.76,0.59,-0.45
4:23:56:27:826656,126.63,-46.58,125.44,-0.72,0.57,-0.43
4:23:56:28:826750,127.68,-46.95,124.77,-0.7,0.54,-0.46
4:23:56:28:826847,127.09,-47.14,125.88,-0.75,0.57,-0.43
4:23:56:28:826942,126.86,-47.2,126.46,-0.74,0.57,-0.43
4:23:56:28:827038,127.06,-46.89,127.28,-0.74,0.58,-0.45
4:23:56:28:827146,126.73,-46.5,129.17,-0.77,0.57,-0.43
4:23:56:28:827658,95.36,-42.1,161.78,-0.61,0.67,-0.04
4:23:56:29:827754,91.81,-41.78,164.5,-0.27,0.4,-0.08
4:23:56:29:827850,91.78,-41.41,167.2,-0.53,0.55,-0.02
4:23:56:29:827945,92.05,-47.34,170.22,-0.72,0.72,-0.03
4:23:56:29:828041,92.18,-53.22,175.03,-0.86,0.46,-0.15
4:23:56:29:828153,92.93,-56.8,177.4,-0.85,0.48,-0.01
4:23:56:29:828249,93.34,-60.39,178.24,-0.93,0.5,-0.04
4:23:56:29:828553,94.12,-59.31,174.29,-0.86,0.54,-0.03
4:23:56:29:828649,94.2,-59.17,173.34,-0.87,0.53,-0.01
4:23:56:30:828745,94.23,-59.05,172.49,-0.87,0.53,-0.01
4:23:56:30:828841,94.25,-58.97,171.74,-0.85,0.51,-0.03
4:23:56:30:828937,94.12,-59.53,171.31,-0.85,0.52,0.01
4:23:56:30:829049,94.63,-62.13,170.59,-0.88,0.49,-0.02
4:23:56:30:829151,94.62,-62.24,170.98,-0.84,0.57,0.0
4:23:56:30:829646,108.99,-72.2,163.3,-0.97,0.31,-0.06
4:23:56:31:829742,110.61,-72.74,161.08,-0.95,0.33,-0.06
4:23:56:31:829854,110.39,-72.47,160.48,-0.98,0.28,-0.06
4:23:56:31:829950,109.88,-72.16,159.92,-0.98,0.3,-0.07
4:23:56:31:830046,108.51,-71.6,160.26,-0.97,0.3,-0.07
4:23:56:31:830142,106.95,-70.9,160.67,-0.97,0.32,-0.07
4:23:56:31:830238,105.02,-69.98,161.1,-0.96,0.33,-0.04
4:23:56:31:830557,98.72,-66.03,164.33,-0.93,0.41,-0.04
4:23:56:31:830654,96.31,-64.13,166.15,-0.93,0.42,-0.03
4:23:56:32:830749,94.6,-62.24,167.09,-0.89,0.46,-0.02
4:23:56:32:830845,94.29,-61.89,166.68,-0.9,0.48,-0.02
4:23:56:32:830941,94.02,-61.78,166.19,-0.91,0.47,-0.02
4:23:56:32:831038,93.83,-61.74,165.4,-0.89,0.51,-0.01
4:23:56:32:831149,93.58,-61.68,165.12,-0.9,0.48,-0.03
4:23:56:32:831661,92.9,-61.62,165.36,-0.89,0.48,-0.01
4:23:56:33:831741,92.76,-61.77,165.58,-0.89,0.49,0.0
4:23:56:33:831837,92.69,-61.85,166.72,-0.89,0.49,-0.01
4:23:56:33:831964,92.87,-62.08,168.03,-0.88,0.47,-0.02
4:23:56:33:832060,93.02,-62.33,168.27,-0.9,0.47,-0.02
4:23:56:33:832156,93.11,-62.34,168.13,-0.9,0.47,-0.02
4:23:56:33:832253,93.13,-62.26,167.9,-0.9,0.47,-0.02
4:23:56:33:832556,93.11,-61.99,166.27,-0.91,0.46,-0.02
4:23:56:33:832652,93.03,-61.4,164.47,-0.91,0.47,-0.03
4:23:56:34:832763,92.76,-59.89,162.16,-0.82,0.52,-0.02
4:23:56:34:832860,92.49,-59.73,161.64,-0.88,0.5,-0.01
4:23:56:34:832940,92.7,-59.05,160.21,-0.86,0.58,-0.03
4:23:56:34:833051,92.43,-57.94,157.56,-0.87,0.57,-0.03
4:23:56:34:833153,92.36,-56.09,156.43,-0.84,0.54,-0.03
4:23:56:34:833648,90.84,-58.15,153.04,-0.83,0.55,-0.02
4:23:56:35:833760,90.59,-60.62,154.3,-0.9,0.49,-0.02
4:23:56:35:833856,90.51,-59.53,155.29,-0.88,0.52,-0.02
4:23:56:35:833952,90.49,-59.35,156.14,-0.89,0.5,0.01
4:23:56:35:834064,90.52,-58.89,156.85,-0.82,0.53,-0.01
4:23:56:35:834144,90.57,-58.98,157.48,-0.82,0.54,-0.02
4:23:56:35:834256,90.64,-59.1,158.06,-0.89,0.51,-0.02
4:23:56:35:834559,90.92,-59.03,159.36,-0.87,0.53,-0.02
4:23:56:35:834655,91.03,-59.03,159.68,-0.88,0.53,-0.01
4:23:56:36:834752,91.13,-59.02,160.0,-0.87,0.53,-0.02
4:23:56:36:834847,91.19,-59.01,160.3,-0.87,0.53,-0.01
4:23:56:36:834959,91.3,-58.99,160.55,-0.87,0.53,-0.02
4:23:56:36:835055,91.37,-58.98,160.79,-0.87,0.53,-0.02
4:23:56:36:835156,91.45,-58.97,161.02,-0.87,0.53,-0.02
4:23:56:36:835668,91.78,-58.91,161.81,-0.87,0.53,-0.02
4:23:56:37:835747,91.84,-58.9,161.93,-0.87,0.53,-0.02
4:23:56:37:835859,91.88,-58.88,162.04,-0.87,0.53,-0.02
4:23:56:37:835955,91.95,-58.88,162.08,-0.87,0.53,-0.02
4:23:56:37:836036,92.0,-58.87,162.13,-0.87,0.53,-0.02
4:23:56:37:836163,92.03,-58.87,162.24,-0.87,0.53,-0.02
4:23:56:37:836259,92.08,-58.86,162.3,-0.87,0.53,-0.02
4:23:56:37:836562,92.17,-58.85,162.47,-0.87,0.53,-0.02
4:23:56:37:836643,92.2,-58.85,162.52,-0.87,0.53,-0.02
4:23:56:38:836754,92.23,-58.84,162.54,-0.87,0.53,-0.02
4:23:56:38:836850,92.27,-58.83,162.55,-0.87,0.53,-0.02
4:23:56:38:836947,92.27,-58.83,162.62,-0.87,0.53,-0.02
4:23:56:38:837043,92.29,-58.82,162.62,-0.87,0.53,-0.02
4:23:56:38:837147,92.29,-58.82,162.67,-0.87,0.53,-0.02
4:23:56:38:837643,92.37,-58.81,162.76,-0.87,0.53,-0.02
4:23:56:39:837755,92.34,-58.81,162.83,-0.87,0.53,-0.02
4:23:56:39:837851,92.36,-58.8,162.84,-0.87,0.53,-0.02
4:23:56:39:837962,92.39,-58.79,162.85,-0.87,0.53,-0.02
4:23:56:39:838059,92.41,-58.79,162.83,-0.87,0.53,-0.02
4:23:56:39:838155,92.44,-58.79,162.8,-0.87,0.53,-0.02
4:23:56:39:838251,92.42,-58.8,162.82,-0.87,0.53,-0.01
4:23:56:39:838554,92.44,-58.79,162.85,-0.87,0.53,-0.01
4:23:56:39:838651,92.46,-58.79,162.86,-0.87,0.53,-0.02
4:23:56:40:838746,92.46,-58.79,162.87,-0.87,0.53,-0.02
4:23:56:40:838842,92.45,-58.8,162.89,-0.87,0.53,-0.02
4:23:56:40:838938,92.43,-58.8,162.96,-0.87,0.53,-0.02
4:23:56:40:839050,92.44,-58.79,162.95,-0.87,0.53,-0.02
4:23:56:40:839153,92.45,-58.8,162.94,-0.87,0.53,-0.02
4:23:56:40:839649,92.46,-58.78,162.9,-0.87,0.53,-0.02
4:23:56:41:839744,92.46,-58.78,162.91,-0.87,0.53,-0.01
4:23:56:41:839842,92.45,-58.78,162.93,-0.87,0.53,-0.01
4:23:56:41:839952,92.44,-58.79,162.94,-0.87,0.53,-0.02
4:23:56:41:840049,92.46,-58.78,162.92,-0.87,0.53,-0.01
4:23:56:41:840144,92.44,-58.78,162.94,-0.87,0.53,-0.02
4:23:56:41:840240,92.49,-58.77,162.79,-0.87,0.53,0.0
4:23:56:41:840544,92.58,-58.77,162.46,-0.87,0.53,-0.02
4:23:56:41:840640,92.61,-58.77,162.33,-0.87,0.53,-0.02
4:23:56:42:840736,92.62,-58.76,162.21,-0.87,0.53,-0.02
4:23:56:42:840863,92.63,-58.76,162.09,-0.87,0.53,-0.02
4:23:56:42:840959,92.62,-58.76,162.04,-0.87,0.53,-0.02
4:23:56:42:841056,92.6,-58.77,162.01,-0.87,0.53,-0.02
4:23:56:42:841158,92.59,-58.77,161.93,-0.87,0.53,-0.02
4:23:56:42:841638,92.48,-58.78,162.09,-0.87,0.53,-0.02
4:23:56:43:841750,92.46,-58.78,162.1,-0.87,0.53,-0.02
4:23:56:43:841862,92.45,-58.78,162.1,-0.87,0.53,-0.01
4:23:56:43:841958,92.42,-58.78,162.19,-0.87,0.53,-0.02
4:23:56:43:842054,92.44,-58.78,162.18,-0.87,0.53,-0.02
4:23:56:43:842149,92.45,-58.78,162.16,-0.87,0.53,-0.02
4:23:56:43:842246,92.45,-58.78,162.18,-0.87,0.53,-0.01
4:23:56:43:842550,92.47,-58.78,162.1,-0.87,0.53,-0.02
4:23:56:43:842660,92.46,-58.78,162.12,-0.87,0.53,-0.02
4:23:56:44:842742,92.44,-58.78,162.14,-0.87,0.53,-0.02
4:23:56:44:842837,92.46,-58.78,162.11,-0.87,0.53,-0.02
4:23:56:44:842949,92.48,-58.78,161.99,-0.86,0.53,-0.02
4:23:56:44:843045,92.47,-58.78,162.0,-0.87,0.53,-0.02
4:23:56:44:843150,92.46,-58.78,162.02,-0.87,0.53,-0.02
4:23:56:44:843645,92.42,-58.8,162.15,-0.87,0.53,-0.02
4:23:56:45:843757,92.4,-58.8,162.22,-0.87,0.53,-0.02
4:23:56:45:843853,92.41,-58.8,162.24,-0.87,0.53,-0.02
4:23:56:45:843950,92.39,-58.8,162.31,-0.87,0.53,-0.02
4:23:56:45:844045,92.39,-58.8,162.32,-0.87,0.53,-0.02
4:23:56:45:844156,92.38,-58.8,162.34,-0.87,0.53,-0.02
4:23:56:45:844252,92.38,-58.8,162.37,-0.87,0.53,-0.02
4:23:56:45:844540,92.38,-58.81,162.45,-0.87,0.53,-0.02
4:23:56:45:844637,92.38,-58.8,162.46,-0.87,0.53,-0.01
4:23:56:46:844749,92.39,-58.8,162.44,-0.87,0.53,-0.02
4:23:56:46:844861,92.42,-58.79,162.39,-0.87,0.53,-0.02
4:23:56:46:844956,92.41,-58.79,162.43,-0.87,0.53,-0.02
4:23:56:46:845052,92.4,-58.8,162.46,-0.87,0.53,-0.01
4:23:56:46:845162,92.41,-58.8,162.48,-0.87,0.53,-0.02
4:23:56:46:845642,92.46,-58.79,162.44,-0.87,0.53,-0.02
4:23:56:47:845754,92.45,-58.79,162.46,-0.87,0.53,-0.02
4:23:56:47:845866,92.44,-58.79,162.46,-0.87,0.53,-0.02
4:23:56:47:845961,92.44,-58.79,162.46,-0.87,0.53,-0.02
4:23:56:47:846058,92.45,-58.79,162.48,-0.87,0.53,-0.02
4:23:56:47:846153,92.47,-58.78,162.45,-0.87,0.53,-0.02
4:23:56:47:846249,92.46,-58.77,162.44,-0.87,0.53,-0.01
4:23:56:47:846553,92.45,-58.78,162.44,-0.87,0.53,-0.02
4:23:56:47:846649,92.45,-58.79,162.47,-0.87,0.53,-0.02
4:23:56:48:846761,92.44,-58.79,162.48,-0.87,0.53,-0.01
4:23:56:48:846841,92.43,-58.79,162.49,-0.87,0.53,-0.02
4:23:56:48:846953,92.45,-58.79,162.45,-0.87,0.53,-0.02
4:23:56:48:847049,92.45,-58.79,162.44,-0.87,0.53,-0.02
4:23:56:48:847154,92.45,-58.8,162.44,-0.87,0.53,-0.02
4:23:56:48:847650,92.43,-58.81,162.53,-0.87,0.51,-0.01
4:23:56:49:847746,92.51,-58.79,162.28,-0.87,0.53,-0.03
4:23:56:49:847857,92.55,-58.78,162.11,-0.87,0.53,-0.02
4:23:56:49:847953,92.61,-58.77,161.92,-0.87,0.53,-0.01
4:23:56:49:848049,92.64,-58.76,161.76,-0.87,0.53,-0.02
4:23:56:49:848145,92.64,-58.76,161.67,-0.87,0.53,-0.01
4:23:56:49:848241,92.64,-58.75,161.54,-0.87,0.53,-0.02
4:23:56:49:848545,92.63,-58.75,161.28,-0.87,0.53,-0.02
4:23:56:49:848641,92.63,-58.75,161.21,-0.87,0.53,-0.02
4:23:56:50:848737,92.62,-58.75,161.17,-0.87,0.53,-0.01
4:23:56:50:848833,92.61,-58.75,161.09,-0.87,0.53,-0.02
4:23:56:50:848960,92.6,-58.75,161.06,-0.87,0.53,-0.02
4:23:56:50:849056,92.61,-58.75,160.96,-0.87,0.53,-0.02
4:23:56:50:849152,92.6,-58.75,160.9,-0.87,0.53,-0.02
4:23:56:50:849648,92.53,-58.76,160.71,-0.87,0.53,-0.02
4:23:56:51:849744,92.51,-58.77,160.73,-0.87,0.53,-0.02
4:23:56:51:849840,92.51,-58.77,160.7,-0.88,0.53,-0.02
4:23:56:51:849936,92.52,-58.78,160.68,-0.87,0.53,-0.02
4:23:56:51:850047,92.52,-58.78,160.67,-0.87,0.53,-0.02
4:23:56:51:850160,92.53,-58.78,160.64,-0.87,0.53,-0.02
4:23:56:51:850255,92.54,-58.78,160.59,-0.87,0.53,-0.02
4:23:56:51:850559,92.48,-58.79,160.71,-0.87,0.53,-0.02
4:23:56:51:850655,92.44,-58.8,160.84,-0.87,0.53,-0.02
4:23:56:52:850751,92.43,-58.8,160.88,-0.88,0.51,-0.0
4:23:56:52:850847,92.38,-58.81,161.07,-0.87,0.55,-0.02
4:23:56:52:850943,92.32,-58.82,161.24,-0.87,0.54,-0.02
4:23:56:52:851039,92.3,-58.82,161.37,-0.87,0.53,-0.01
4:23:56:52:851150,92.28,-58.83,161.5,-0.87,0.53,-0.02
4:23:56:52:851661,92.24,-58.83,162.01,-0.87,0.53,-0.02
4:23:56:53:851757,92.23,-58.83,162.08,-0.88,0.53,-0.02
4:23:56:53:851853,92.24,-58.82,162.12,-0.87,0.53,-0.02
