sysTime,roll,pitch,yaw,ax,ay,az,sqrt,average
6:7:23:43:46017,73.61,23.41,-3.13,-0.07,0.95,0.17,0.97,1.24
6:7:23:43:46064,81.99,21.17,1.42,0.06,0.71,0.2,0.74,1.05
6:7:23:43:46158,84.06,21.72,5.32,-0.12,0.76,0.5,0.92,0.88
6:7:23:43:46255,81.81,16.1,9.67,-0.36,0.84,0.55,1.07,0.91
6:7:23:44:46660,85.12,17.01,0.25,-0.12,0.59,0.21,0.64,0.87
6:7:23:44:46740,85.55,18.89,-4.2,-0.45,0.61,0.26,0.8,0.84
6:7:23:44:46851,84.78,22.51,-3.94,-0.39,1.02,0.49,1.2,0.88
6:7:23:44:46948,85.35,23.62,-3.93,-0.42,1.0,0.45,1.18,1.06
6:7:23:44:47045,86.42,24.62,-3.47,-0.37,1.06,0.49,1.22,1.2
6:7:23:44:47141,86.97,25.01,-2.41,-0.37,0.96,0.3,1.07,1.16
6:7:23:44:47237,87.61,28.65,-2.82,-0.18,0.51,0.17,0.56,0.95
6:7:23:45:47667,83.13,36.15,-3.04,-0.36,1.29,0.8,1.56,1.07
6:7:23:45:47748,82.71,34.11,-6.98,-0.23,0.84,0.51,1.01,1.04
6:7:23:45:47845,82.1,37.03,-9.48,-0.1,0.55,0.36,0.67,1.08
6:7:23:45:47956,83.49,40.28,-11.94,-0.36,0.58,0.31,0.76,0.81
6:7:23:45:48052,82.57,40.68,-15.66,-0.33,0.78,0.51,0.98,0.8
6:7:23:45:48147,80.36,38.74,-19.1,-0.54,1.04,0.57,1.3,1.01
6:7:23:45:48260,84.22,40.02,-17.47,-0.61,1.19,0.52,1.43,1.24
6:7:23:46:48638,91.45,37.91,-4.09,-0.34,0.7,0.56,0.96,1.23
6:7:23:46:48750,88.45,34.0,-6.69,-0.56,0.9,0.76,1.31,1.23
6:7:23:46:48846,85.99,37.92,-5.29,-0.45,0.84,1.06,1.43,1.23
6:7:23:46:49350,88.46,43.09,-2.18,-0.12,0.61,0.59,0.86,1.2
6:7:23:46:49352,85.72,46.55,-7.8,-0.12,0.45,0.37,0.59,0.96
6:7:23:46:49353,78.76,50.83,-17.62,-0.35,0.43,0.56,0.79,0.75
6:7:23:46:49357,70.49,49.0,-27.01,-0.42,0.65,0.7,1.04,0.81
6:7:23:47:49642,102.56,44.61,-12.27,-0.08,0.51,0.3,0.6,0.81
6:7:23:47:49738,111.12,45.14,-4.7,-0.27,0.61,0.59,0.89,0.84
6:7:23:47:49834,115.83,45.95,1.37,-0.27,0.95,0.85,1.31,0.93
6:7:23:47:49945,116.96,46.8,5.19,-0.27,1.0,0.83,1.33,1.17
6:7:23:47:50041,121.02,53.31,11.63,0.31,0.86,0.6,1.09,1.24
6:7:23:47:50154,104.52,49.5,-1.72,-0.07,0.83,0.44,0.94,1.12
6:7:23:47:50234,96.82,54.76,-10.4,-0.04,0.4,0.38,0.56,0.86
6:7:23:48:50638,94.29,58.18,-22.22,0.19,0.84,0.49,0.99,0.83
6:7:23:48:50750,94.0,47.91,-20.65,-0.04,0.8,0.4,0.9,0.81
6:7:23:48:50863,96.71,44.45,-14.69,-0.11,0.41,0.27,0.5,0.8
6:7:23:48:50944,99.38,42.28,-9.12,-0.12,0.82,0.7,1.09,0.83
6:7:23:48:51038,102.79,41.79,-6.44,-0.17,0.93,0.73,1.19,0.93
6:7:23:48:51151,100.62,42.52,-9.02,-0.07,0.93,0.81,1.23,1.17
6:7:23:48:51247,96.8,44.64,-10.89,0.13,0.85,0.59,1.04,1.16
6:7:23:49:51652,37.21,58.47,-47.11,-0.03,0.52,1.21,1.31,1.2
6:7:23:49:51748,32.35,59.24,-46.96,0.02,0.23,1.39,1.41,1.26
6:7:23:49:51860,30.79,55.43,-48.34,0.13,0.24,0.91,0.95,1.22
6:7:23:49:51955,33.89,55.04,-44.31,0.15,0.19,0.45,0.52,0.96
6:7:23:49:52051,36.99,55.38,-37.66,0.05,0.02,0.66,0.67,0.71
6:7:23:49:52147,38.82,57.26,-34.82,0.07,-0.07,1.11,1.12,0.77
6:7:23:49:52243,42.48,62.23,-34.46,0.25,-0.07,1.3,1.32,1.03
6:7:23:50:52654,24.09,65.62,-62.76,0.08,-0.08,0.73,0.74,1.06
6:7:23:50:52751,25.54,69.92,-59.76,0.21,-0.02,1.25,1.27,1.11
6:7:23:50:52848,32.57,69.47,-55.44,0.35,0.01,1.39,1.44,1.15
6:7:23:50:52944,40.79,73.8,-46.39,0.56,-0.07,0.85,1.03,1.24
6:7:23:50:53054,59.83,72.15,-28.04,0.39,0.12,0.65,0.77,1.08
6:7:23:50:53151,67.0,65.04,-24.24,0.27,0.01,0.54,0.6,0.8
6:7:23:50:53262,69.62,61.71,-20.12,0.25,0.1,0.69,0.74,0.7
6:7:23:51:53658,59.54,71.87,-34.85,0.45,0.09,0.6,0.75,0.7
6:7:23:51:53737,63.52,69.84,-37.34,0.17,0.08,0.37,0.42,0.64
6:7:23:51:53850,44.32,72.24,-53.97,0.19,0.12,1.06,1.08,0.75
6:7:23:51:53946,32.91,70.81,-62.55,0.45,0.29,1.58,1.66,1.06
6:7:23:51:54042,46.11,60.5,-60.04,0.37,0.39,1.44,1.54,1.43
6:7:23:51:54153,68.72,44.71,-51.61,0.28,0.74,0.68,1.04,1.42
6:7:23:51:54250,86.55,26.55,-46.39,0.11,0.58,0.3,0.66,1.08
6:7:23:52:54641,109.43,6.84,-41.35,-0.32,1.01,0.26,1.09,0.93
6:7:23:52:54768,108.96,12.66,-43.2,-0.12,0.78,-0.03,0.79,0.85
6:7:23:52:54848,100.69,23.69,-48.61,-0.19,0.55,0.0,0.58,0.82
6:7:23:52:54961,86.38,30.37,-48.86,-0.35,0.87,0.25,0.97,0.78
6:7:23:52:55056,77.5,35.45,-49.21,-0.26,1.03,0.49,1.17,0.91
6:7:23:52:55152,73.52,41.51,-52.31,0.17,1.24,0.39,1.32,1.15
6:7:23:52:55249,68.8,50.21,-50.22,0.43,0.83,0.23,0.96,1.15
6:7:23:53:55648,59.68,60.57,-37.09,0.58,0.85,0.66,1.22,1.17
6:7:23:53:55744,47.57,61.28,-46.18,0.78,0.78,1.01,1.5,1.23
6:7:23:53:55840,41.05,63.08,-51.09,0.73,0.4,0.53,0.98,1.23
6:7:23:53:55984,41.97,58.68,-57.39,0.51,0.38,0.34,0.72,1.07
6:7:23:53:56047,47.25,53.33,-61.33,0.14,0.54,0.09,0.57,0.76
6:7:23:53:56144,43.34,50.73,-69.68,0.43,0.85,0.48,1.07,0.78
6:7:23:53:56240,42.6,48.19,-71.06,0.64,1.06,0.65,1.4,1.01
6:7:23:54:56667,42.41,45.44,-49.25,0.25,0.55,0.58,0.84,1.1
6:7:23:54:56747,39.33,42.54,-48.0,0.35,0.7,0.65,1.02,1.08
6:7:23:54:56843,35.46,37.55,-51.99,0.38,0.76,0.83,1.19,1.02
6:7:23:54:57019,32.03,34.23,-59.42,0.46,0.65,0.94,1.24,1.15
6:7:23:54:57051,33.18,37.64,-63.41,0.39,0.56,0.45,0.81,1.08
6:7:23:54:57163,34.59,40.5,-67.19,0.17,0.5,0.34,0.63,0.89
6:7:23:54:57244,32.43,39.02,-74.72,0.3,0.7,0.67,1.02,0.82
6:7:23:55:57651,41.91,38.2,-61.9,0.26,0.38,0.38,0.6,0.75
6:7:23:55:57778,40.02,39.16,-59.72,0.14,0.5,0.57,0.78,0.8
6:7:23:55:57875,40.42,40.69,-54.29,0.47,0.8,0.86,1.27,0.88
6:7:23:55:58003,40.67,37.85,-51.57,0.46,0.79,0.77,1.19,1.08
6:7:23:55:58050,34.68,34.46,-57.24,0.49,0.59,0.75,1.08,1.18
6:7:23:55:58146,34.45,31.51,-63.34,0.54,0.8,0.73,1.21,1.16
6:7:23:55:58243,33.83,31.19,-71.87,0.21,0.45,0.45,0.67,0.98
6:7:23:56:58664,36.94,28.8,-76.38,0.38,0.81,0.44,0.99,0.96
6:7:23:56:58745,38.45,31.32,-72.58,0.28,0.46,0.48,0.72,0.8
6:7:23:56:58858,37.46,32.36,-66.13,0.09,0.42,0.46,0.63,0.78
6:7:23:56:58969,36.05,33.89,-61.89,0.23,0.6,0.82,1.04,0.8
6:7:23:56:59049,37.02,34.99,-58.75,0.31,0.75,0.98,1.27,0.98
6:7:23:56:59176,32.86,38.07,-62.4,0.65,0.5,1.17,1.43,1.25
6:7:23:56:59256,33.08,38.05,-65.43,0.53,0.48,0.65,0.97,1.22
6:7:23:57:59655,35.52,28.5,-79.66,0.4,0.88,0.86,1.29,1.23
6:7:23:57:59751,39.54,29.89,-73.92,0.6,0.78,0.79,1.26,1.17
6:7:23:57:59894,44.05,32.93,-67.58,0.35,0.63,0.53,0.9,1.15
6:7:23:57:59975,44.8,34.93,-63.52,0.27,0.46,0.55,0.77,0.97
6:7:23:57:60071,44.71,36.49,-57.73,0.24,0.52,0.71,0.91,0.86
6:7:23:57:60151,41.32,31.72,-54.96,0.25,0.63,0.7,0.97,0.88
6:7:23:57:60247,40.03,27.77,-55.78,0.49,0.7,0.85,1.21,1.03
6:7:23:58:60636,46.35,28.28,-74.09,0.2,0.7,0.55,0.91,1.03
6:7:23:58:60748,47.21,23.83,-74.31,0.17,0.9,0.77,1.2,1.11
6:7:23:58:60844,49.43,24.58,-70.4,0.37,0.96,0.74,1.26,1.12
6:7:23:58:61052,54.14,25.33,-58.87,0.48,0.84,0.35,1.03,1.16
6:7:23:58:61068,57.9,23.13,-51.35,0.37,0.6,0.46,0.84,1.04
6:7:23:58:61148,57.85,23.69,-46.77,0.16,0.42,0.38,0.59,0.82
6:7:23:58:61244,56.66,24.72,-43.47,0.18,0.71,0.67,0.99,0.81
6:7:23:59:61641,52.37,25.51,-52.77,0.27,0.51,0.37,0.69,0.76
6:7:23:59:61736,54.17,21.32,-59.44,0.06,0.53,0.34,0.63,0.77
6:7:23:59:61832,53.26,17.49,-66.98,0.21,0.81,0.63,1.04,0.79
6:7:23:59:61944,53.73,15.58,-68.02,0.26,1.05,0.64,1.26,0.98
6:7:23:59:62056,55.21,16.39,-63.45,0.37,0.98,0.54,1.18,1.16
6:7:23:59:62152,57.6,17.2,-57.1,0.36,0.88,0.45,1.06,1.17
6:7:23:59:62247,60.4,18.24,-51.98,0.13,0.56,0.29,0.65,0.96
6:7:24:0:62664,46.27,21.05,-55.63,0.45,0.73,0.83,1.2,0.97
6:7:24:0:62759,45.22,21.05,-59.06,0.22,0.62,0.44,0.79,0.88
6:7:24:0:62872,46.6,20.62,-61.71,0.16,0.5,0.37,0.64,0.88
6:7:24:0:62952,47.7,18.69,-65.96,0.11,0.62,0.52,0.82,0.75
6:7:24:0:63080,48.95,16.65,-68.94,0.21,0.91,0.7,1.16,0.87
6:7:24:0:63159,50.37,16.29,-67.19,0.41,1.08,0.77,1.39,1.12
6:7:24:0:63240,53.96,18.6,-62.0,0.32,0.89,0.39,1.02,1.19
6:7:24:1:63758,51.88,21.65,-52.35,0.32,0.85,0.75,1.18,1.2
6:7:24:1:63791,48.42,22.69,-57.79,0.6,0.94,0.97,1.48,1.23
6:7:24:1:63855,49.67,22.71,-64.51,0.39,0.66,0.56,0.95,1.2
6:7:24:1:63966,51.56,20.96,-70.83,0.15,0.45,0.31,0.57,1.0
6:7:24:1:64047,52.68,21.3,-74.56,0.16,0.55,0.41,0.7,0.74
6:7:24:1:64142,55.12,19.37,-74.75,0.22,0.93,0.6,1.13,0.8
6:7:24:1:64239,56.34,21.25,-70.45,0.33,1.09,0.67,1.32,1.05
6:7:24:2:64933,52.72,23.14,-56.5,0.34,0.62,0.68,0.98,1.14
6:7:24:2:64934,50.12,22.82,-55.84,0.41,0.86,0.81,1.26,1.19
6:7:24:2:64935,48.81,23.12,-58.84,0.55,0.88,0.86,1.35,1.19
6:7:24:2:64981,50.7,23.91,-61.8,0.5,0.61,0.63,1.01,1.21
6:7:24:2:65046,54.88,21.86,-62.19,0.21,0.51,0.3,0.63,1.0
6:7:24:2:65141,56.06,19.14,-65.41,0.11,0.65,0.37,0.76,0.8
6:7:24:2:65253,56.32,17.85,-69.5,0.26,0.92,0.61,1.13,0.84
6:7:24:3:65638,58.73,11.5,-55.23,0.08,0.52,0.37,0.64,0.84
6:7:24:3:65764,56.72,12.21,-53.14,0.03,0.69,0.59,0.91,0.89
6:7:24:3:65876,55.75,14.23,-52.1,0.27,0.88,0.79,1.21,0.92
6:7:24:3:65941,54.41,16.17,-54.59,0.5,1.09,0.91,1.5,1.21
6:7:24:3:66053,54.38,19.13,-59.02,0.37,0.76,0.52,1.0,1.24
6:7:24:3:66148,55.11,19.05,-65.13,0.21,0.6,0.41,0.76,1.09
6:7:24:3:66276,57.25,16.79,-70.38,0.02,0.54,0.34,0.64,0.8
6:7:24:4:66708,61.03,15.07,-64.16,0.28,0.95,0.34,1.05,0.82
6:7:24:4:66756,60.04,14.91,-60.79,0.14,0.52,0.32,0.63,0.77
6:7:24:4:66837,58.33,14.7,-58.66,0.03,0.47,0.4,0.62,0.77
6:7:24:4:66949,60.31,13.75,-56.84,0.13,0.96,0.67,1.17,0.81
6:7:24:4:67108,57.96,20.14,-57.36,0.25,0.83,0.72,1.13,0.97
6:7:24:4:67316,56.68,22.1,-62.71,0.65,1.09,0.77,1.49,1.26
6:7:24:4:67359,57.48,22.8,-68.0,0.43,0.64,0.49,0.92,1.18
6:7:24:5:67639,61.47,25.28,-75.14,0.53,1.12,0.47,1.33,1.24
6:7:24:5:67751,63.61,23.53,-65.87,0.49,0.87,0.2,1.02,1.09
6:7:24:5:67863,62.26,23.16,-59.13,0.3,0.53,0.21,0.64,1.0
6:7:24:5:67959,56.94,24.09,-55.12,0.25,0.42,0.39,0.63,0.76
6:7:24:5:68071,53.7,23.92,-53.78,0.39,0.92,0.71,1.22,0.83
6:7:24:5:68167,50.57,23.74,-55.36,0.51,0.82,0.76,1.23,1.03
6:7:24:5:68247,48.43,26.18,-60.3,0.82,0.76,0.59,1.26,1.24
6:7:24:6:68679,61.97,24.85,-74.5,0.63,1.01,0.52,1.3,1.26
6:7:24:6:68972,66.11,26.53,-69.73,0.94,1.22,0.48,1.61,1.39
6:7:24:6:68973,70.73,24.43,-59.03,0.48,0.96,-0.08,1.08,1.33
6:7:24:6:68974,70.49,22.28,-54.1,0.42,0.66,0.14,0.8,1.16
6:7:24:6:69051,64.05,22.04,-50.27,0.26,0.5,0.23,0.6,0.83
6:7:24:6:69147,57.51,23.23,-49.13,0.53,0.74,0.47,1.02,0.81
6:7:24:6:69258,54.63,20.51,-49.76,0.46,0.85,0.58,1.12,0.92
6:7:24:8:70656,54.6,19.89,-73.2,0.28,0.46,0.32,0.62,0.92
6:7:24:8:70753,58.3,17.49,-79.08,0.12,0.57,0.39,0.7,0.82
6:7:24:8:70880,58.25,16.49,-88.16,0.3,0.78,0.63,1.04,0.79
6:7:24:8:70960,58.68,14.59,-94.74,0.38,0.95,0.71,1.24,1.0
6:7:24:8:71056,58.97,16.16,-98.77,0.64,0.95,0.48,1.24,1.18
6:7:24:8:71153,61.66,15.76,-104.62,0.42,0.81,0.4,1.0,1.16
6:7:24:8:71248,60.93,14.29,-110.45,0.14,0.54,0.4,0.69,0.98
6:7:24:9:71672,59.74,17.38,-126.82,0.39,0.59,0.72,1.01,0.9
6:7:24:9:71753,60.82,20.48,-129.16,0.23,0.55,0.27,0.65,0.79
6:7:24:9:71863,59.4,18.68,-133.79,0.02,0.59,0.37,0.7,0.79
6:7:24:9:71960,54.89,16.02,-140.88,0.22,0.95,0.69,1.19,0.85
6:7:24:9:72056,54.69,13.55,-140.1,0.17,0.97,0.52,1.12,1.0
6:7:24:9:72167,56.62,11.49,-134.3,0.51,1.13,0.64,1.39,1.23
6:7:24:9:72263,58.45,10.78,-126.25,0.38,0.84,0.49,1.05,1.19
6:7:24:11:73648,58.66,17.78,-82.99,0.18,1.0,0.61,1.18,1.21
6:7:24:11:73823,56.7,13.86,-83.85,0.19,1.02,0.68,1.24,1.16
6:7:24:11:73855,49.62,14.95,-89.92,0.44,0.85,0.94,1.34,1.25
6:7:24:11:73952,50.65,15.69,-94.03,0.34,0.7,0.63,1.0,1.19
6:7:24:11:74063,53.36,17.26,-97.97,0.11,0.46,0.31,0.57,0.97
6:7:24:11:74159,54.69,17.89,-103.84,0.01,0.54,0.5,0.73,0.77
6:7:24:11:74255,51.82,20.36,-108.6,0.14,0.86,0.75,1.15,0.82
6:7:24:12:74652,57.21,21.7,-99.66,0.12,0.38,0.31,0.51,0.8
6:7:24:12:74764,56.24,19.86,-97.9,0.14,0.64,0.63,0.91,0.86
6:7:24:12:74860,55.32,17.97,-97.93,0.31,1.03,0.79,1.34,0.92
6:7:24:12:74972,51.61,19.23,-102.1,0.46,0.95,0.75,1.29,1.18
6:7:24:12:75052,51.65,18.84,-109.35,0.54,0.86,0.68,1.22,1.28
6:7:24:12:75163,52.14,19.52,-116.99,0.2,0.51,0.33,0.64,1.05
6:7:24:12:75243,52.62,19.23,-121.16,0.06,0.61,0.34,0.7,0.85
6:7:24:13:75659,50.59,11.43,-114.71,0.21,0.59,0.37,0.73,0.69
6:7:24:13:75756,46.6,12.92,-104.22,0.08,0.4,0.32,0.52,0.65
6:7:24:13:75867,44.66,14.19,-93.31,0.17,0.68,0.72,1.0,0.75
6:7:24:13:75963,43.21,16.37,-88.98,0.39,0.83,0.96,1.32,0.95
6:7:24:13:76108,41.99,21.13,-90.87,0.68,0.7,1.06,1.44,1.26
6:7:24:13:76155,44.26,24.33,-92.16,0.29,0.49,0.52,0.77,1.18
6:7:24:13:76284,47.2,24.35,-94.6,0.18,0.44,0.42,0.63,0.95
6:7:24:14:76876,53.4,19.25,-85.3,0.54,0.94,0.42,1.16,0.85
6:7:24:14:76907,51.98,20.77,-80.66,0.3,0.39,0.36,0.61,0.8
6:7:24:14:76923,49.18,22.29,-75.02,0.07,0.45,0.42,0.62,0.8
6:7:24:14:76956,45.53,23.04,-72.5,0.35,0.88,0.92,1.32,0.85
6:7:24:14:77067,43.45,21.58,-74.05,0.46,0.82,0.95,1.34,1.09
6:7:24:14:77195,41.39,21.08,-78.59,0.47,0.64,0.86,1.17,1.28
6:7:24:14:77275,41.74,20.69,-82.69,0.42,0.57,0.63,0.95,1.15
6:7:24:15:77683,48.76,15.22,-96.23,0.5,0.75,0.83,1.23,1.11
6:7:24:15:77777,49.46,12.3,-99.93,0.51,0.89,0.93,1.39,1.19
6:7:24:15:77857,48.86,13.98,-111.49,0.24,0.42,0.48,0.68,1.1
6:7:24:15:77953,46.99,17.45,-125.2,0.23,0.43,0.5,0.7,0.92
6:7:24:15:78049,45.65,19.15,-140.53,0.46,0.61,0.52,0.93,0.77
6:7:24:15:78161,44.24,18.39,-159.26,0.55,0.96,0.9,1.43,1.02
6:7:24:15:78257,43.53,16.92,-179.2,0.38,0.51,1.05,1.23,1.2
6:7:24:16:78641,47.13,16.85,158.2,0.25,0.54,0.64,0.88,1.18
6:7:24:16:78753,50.46,18.6,157.59,0.2,0.71,0.64,0.98,1.03
6:7:24:16:78865,52.78,18.09,158.38,0.39,0.68,0.78,1.11,0.99
6:7:24:16:78960,56.87,19.74,164.68,0.37,0.85,0.64,1.13,1.07
6:7:24:16:79056,59.59,22.27,169.7,0.37,0.78,0.49,0.99,1.08
6:7:24:16:79169,61.59,20.96,170.8,0.28,0.78,0.51,0.97,1.03
6:7:24:16:79264,62.83,21.06,173.08,0.37,0.79,0.46,0.99,0.98
6:7:24:17:79638,61.82,23.07,168.78,0.34,0.65,0.81,1.09,1.02
6:7:24:17:79765,61.85,23.92,170.07,0.23,0.56,0.56,0.83,0.97
6:7:24:17:79893,61.78,22.28,170.07,0.21,0.64,0.53,0.86,0.93
6:7:24:17:79958,61.56,19.77,169.1,0.39,0.69,0.66,1.03,0.91
6:7:24:17:80069,60.73,19.58,170.27,0.33,0.64,0.54,0.9,0.93
6:7:24:17:80166,61.62,18.02,172.74,0.32,0.9,0.66,1.16,1.03
6:7:24:17:80262,62.2,20.08,175.35,0.26,0.94,0.71,1.2,1.09
6:7:24:18:80645,61.88,16.46,172.74,0.34,0.74,0.45,0.93,1.1
6:7:24:18:80757,61.41,16.63,172.33,0.27,0.93,0.66,1.17,1.1
6:7:24:18:80869,62.82,19.28,171.65,0.49,1.03,0.82,1.41,1.17
6:7:24:18:80950,62.56,22.59,172.86,0.22,0.53,0.55,0.8,1.13
6:7:24:18:81093,61.45,21.57,174.13,0.17,0.56,0.61,0.84,1.02
6:7:24:18:81189,60.49,21.45,175.53,0.33,0.6,0.65,0.94,0.86
6:7:24:18:81269,62.07,19.12,177.27,0.32,0.6,0.53,0.86,0.88
6:7:24:19:81653,68.08,17.38,179.74,0.11,0.68,0.31,0.76,0.85
6:7:24:19:81765,66.19,15.98,174.46,0.14,0.69,0.39,0.81,0.81
6:7:24:19:81861,62.73,15.47,170.79,0.3,0.77,0.51,0.97,0.84
6:7:24:19:81989,60.7,14.83,168.2,0.24,0.86,0.61,1.08,0.95
6:7:24:19:82053,62.03,15.94,167.25,0.34,1.19,0.91,1.54,1.2
6:7:24:19:82166,66.87,21.78,169.66,0.2,0.6,0.55,0.84,1.15
6:7:24:19:82260,66.95,22.38,169.13,0.17,0.59,0.51,0.8,1.06
6:7:24:20:82652,65.46,17.9,173.24,0.28,0.8,0.63,1.06,0.9
6:7:24:20:82763,63.68,20.6,173.83,0.23,0.99,0.57,1.16,1.01
6:7:24:20:82859,60.87,24.24,172.16,0.34,0.55,0.49,0.81,1.01
6:7:24:20:82956,63.37,19.25,172.0,0.22,0.66,0.47,0.84,0.94
6:7:24:20:83052,59.87,19.41,172.74,0.34,0.73,0.51,0.95,0.87
6:7:24:20:83195,54.35,22.01,172.44,0.37,0.6,0.68,0.98,0.92
6:7:24:20:83260,52.98,21.34,173.17,0.32,0.9,0.98,1.37,1.1
6:7:24:21:83669,53.88,22.18,-177.88,0.35,0.54,0.85,1.06,1.14
6:7:24:21:83766,55.98,20.73,-174.33,0.33,0.42,0.61,0.81,1.08
6:7:24:21:83861,58.83,18.51,-172.23,0.39,0.55,0.63,0.92,0.93
6:7:24:21:83941,56.84,16.56,-175.58,0.34,0.6,0.87,1.12,0.95
6:7:24:21:84038,55.12,15.92,-179.93,0.18,0.69,0.87,1.12,1.05
6:7:24:21:84150,52.36,19.23,178.65,0.17,0.72,0.77,1.06,1.1
6:7:24:21:84261,51.6,19.99,-179.55,0.15,0.57,0.69,0.91,1.03
6:7:24:22:84654,31.83,9.03,-173.55,0.15,0.33,0.88,0.95,0.97
6:7:24:22:84767,27.37,8.34,-171.7,0.16,0.27,0.9,0.95,0.93
6:7:24:22:84861,23.27,8.59,-169.21,0.15,0.12,0.85,0.87,0.92
6:7:24:22:84958,15.77,7.78,-167.72,0.06,-0.01,1.04,1.05,0.95
6:7:24:22:85070,7.05,9.56,-167.03,0.1,-0.07,0.97,0.97,0.96
6:7:24:22:85134,0.06,13.33,-165.97,0.26,-0.22,0.88,0.95,0.99
6:7:24:22:85245,-1.45,12.69,-162.66,0.22,-0.18,0.98,1.02,0.98
6:7:24:23:85651,0.87,10.12,-158.63,0.18,-0.03,0.94,0.96,0.98
6:7:24:23:85762,0.96,9.52,-156.7,0.17,0.0,0.96,0.97,0.99
6:7:24:23:85858,0.59,8.55,-155.01,0.13,-0.03,0.95,0.96,0.97
6:7:24:23:85954,-0.22,7.98,-153.58,0.12,-0.02,0.98,0.99,0.97
6:7:24:23:86050,-0.99,7.63,-152.24,0.13,-0.03,0.96,0.97,0.97
6:7:24:23:86148,-1.34,7.13,-150.92,0.12,-0.03,0.98,0.98,0.98
6:7:24:23:86243,-1.59,6.72,-150.19,0.09,-0.03,0.99,0.99,0.98
6:7:24:24:86658,-2.41,6.49,-148.07,0.11,-0.04,0.97,0.98,0.99
6:7:24:24:86738,-2.16,6.39,-147.66,0.11,-0.04,0.98,0.98,0.99
6:7:24:24:86835,-2.02,6.74,-147.4,0.12,-0.05,0.97,0.98,0.98
6:7:24:24:86946,-1.71,6.91,-147.06,0.11,-0.03,0.96,0.97,0.98
6:7:24:24:87059,-1.47,7.06,-146.73,0.11,-0.02,0.98,0.98,0.98
6:7:24:24:87138,-1.23,7.04,-146.4,0.12,-0.02,0.97,0.98,0.98
6:7:24:24:87234,-1.05,7.12,-146.17,0.12,-0.01,0.97,0.98,0.98
6:7:24:25:87661,-0.69,7.86,-143.63,0.11,-0.01,0.95,0.95,0.97
6:7:24:25:87757,-0.81,8.29,-142.99,0.1,-0.05,0.96,0.96,0.96
6:7:24:25:87854,-1.36,8.4,-143.27,0.02,-0.12,0.94,0.95,0.96
6:7:24:25:87949,-2.96,8.1,-143.62,0.04,-0.01,1.07,1.07,0.99
6:7:24:25:88045,-2.45,11.36,-145.13,0.04,-0.06,0.89,0.89,0.97
6:7:24:25:88172,-2.23,12.57,-146.01,0.12,-0.06,1.04,1.05,1.0
6:7:24:25:88252,0.09,10.98,-145.41,0.09,-0.02,1.01,1.01,0.98
6:7:24:26:88638,10.01,8.77,-140.07,0.14,0.14,0.75,0.78,0.95
6:7:24:26:88764,9.88,9.14,-141.26,0.08,0.16,0.83,0.85,0.88
6:7:24:26:88861,9.89,8.8,-141.96,0.06,0.19,0.97,0.99,0.87
6:7:24:26:88972,10.12,5.88,-142.96,0.05,0.12,1.06,1.07,0.97
6:7:24:26:89036,11.28,2.5,-145.2,0.04,0.3,1.1,1.14,1.07
6:7:24:26:89133,12.8,-1.21,-148.26,0.19,0.33,1.01,1.08,1.1
6:7:24:26:89260,11.95,3.12,-151.57,0.32,0.12,1.02,1.07,1.1
6:7:24:27:89653,28.53,14.23,-157.42,0.45,0.48,0.98,1.18,1.11
6:7:24:27:89749,28.61,15.52,-153.91,0.43,0.43,0.86,1.05,1.1
6:7:24:27:89846,28.0,16.41,-149.68,0.4,0.38,0.71,0.89,1.04
6:7:24:27:89958,22.0,12.65,-147.93,0.12,0.21,0.63,0.67,0.87
6:7:24:27:90037,14.75,10.08,-147.5,0.08,0.21,0.84,0.87,0.81
6:7:24:27:90165,14.33,7.76,-147.42,0.06,0.21,1.01,1.04,0.86
6:7:24:27:90245,16.94,5.2,-150.08,0.1,0.3,1.16,1.2,1.04
6:7:24:28:90641,22.81,14.31,-161.63,0.13,0.4,0.9,0.99,1.08
6:7:24:28:90752,25.53,16.42,-161.31,0.27,0.52,0.99,1.15,1.11
6:7:24:28:90848,27.94,15.3,-157.44,0.57,0.68,1.2,1.49,1.21
6:7:24:28:90944,26.96,16.31,-151.62,0.47,0.33,0.73,0.93,1.19
6:7:24:28:91055,27.66,16.18,-143.66,0.3,0.26,0.5,0.64,1.02
6:7:24:28:91136,25.36,15.1,-138.93,0.16,0.16,0.61,0.65,0.74
6:7:24:28:91280,24.03,12.17,-135.85,0.16,0.39,0.98,1.07,0.78
6:7:24:29:91677,21.76,14.57,-152.3,0.18,0.2,0.56,0.63,0.78
6:7:24:29:91759,22.94,17.8,-156.7,0.14,0.33,0.63,0.73,0.81
6:7:24:29:91870,23.96,16.3,-159.57,0.29,0.41,0.99,1.11,0.82
6:7:24:29:91934,25.65,12.49,-158.65,0.37,0.5,1.1,1.27,1.04
6:7:24:29:92078,26.54,11.54,-153.49,0.39,0.45,0.89,1.07,1.15
6:7:24:29:92141,27.25,10.83,-148.71,0.34,0.38,0.92,1.05,1.13
6:7:24:29:92302,28.2,8.0,-145.97,0.06,0.19,0.6,0.63,0.92
6:7:24:30:92790,20.39,6.49,-157.11,0.23,0.17,0.93,0.97,0.88
6:7:24:30:92791,22.18,8.7,-160.82,0.18,0.21,0.54,0.61,0.73
6:7:24:30:92903,23.54,10.01,-162.86,0.13,0.31,0.71,0.78,0.79
6:7:24:30:92999,23.62,10.23,-165.74,0.07,0.37,0.92,0.99,0.79
6:7:24:30:93063,24.17,12.43,-166.37,0.32,0.56,1.11,1.28,1.02
6:7:24:30:93174,25.49,15.46,-162.21,0.54,0.4,1.08,1.27,1.18
6:7:24:31:93669,26.96,12.56,-154.92,0.39,0.38,0.93,1.08,1.21
6:7:24:31:93950,18.02,6.76,-142.16,0.19,0.17,1.1,1.13,1.16
6:7:24:31:94047,21.24,4.54,-144.83,0.3,0.26,1.24,1.3,1.17
6:7:24:31:94077,20.9,9.43,-151.23,0.26,0.24,0.73,0.82,1.08
6:7:24:31:94174,21.41,10.55,-157.47,0.13,0.23,0.51,0.58,0.9
6:7:24:31:94238,20.7,11.68,-164.37,0.17,0.33,0.86,0.94,0.78
6:7:24:31:94429,21.93,12.71,-165.13,0.29,0.53,1.11,1.26,0.92
6:7:24:32:94535,24.84,11.4,-160.39,0.41,0.47,1.15,1.31,1.17
6:7:24:32:94653,21.99,8.61,-139.18,0.03,0.4,1.14,1.21,1.26
6:7:24:32:94763,22.48,8.16,-137.96,0.13,0.45,1.2,1.29,1.27
6:7:24:32:94859,21.32,8.77,-143.24,0.43,0.31,1.28,1.38,1.29
6:7:24:32:94940,22.46,9.15,-149.77,0.28,0.16,0.9,0.95,1.21
6:7:24:32:95051,26.99,10.23,-153.78,0.15,0.22,0.49,0.56,0.96
6:7:24:32:95164,26.63,12.48,-158.79,0.12,0.35,0.73,0.82,0.78
6:7:24:32:95260,25.02,15.12,-160.83,0.36,0.49,1.0,1.17,0.85
6:7:24:33:95669,22.5,12.84,-144.53,0.06,0.11,0.55,0.57,0.85
6:7:24:33:95749,21.82,11.45,-140.67,0.15,0.37,1.0,1.08,0.94
6:7:24:33:95845,19.12,12.39,-139.95,0.26,0.34,1.12,1.2,0.95
6:7:24:33:95989,17.89,13.77,-141.93,0.43,0.22,1.29,1.37,1.22
6:7:24:33:96037,24.66,14.13,-141.56,0.37,0.18,0.83,0.93,1.17
6:7:24:33:96149,29.87,14.89,-142.87,0.21,0.24,0.54,0.63,0.98
6:7:24:33:96245,33.72,16.95,-145.64,0.08,0.4,0.58,0.71,0.76
6:7:24:34:96654,37.58,21.56,-145.8,0.57,0.58,0.72,1.09,0.81
6:7:24:34:96749,36.82,22.38,-141.48,0.24,0.27,0.27,0.45,0.75
6:7:24:34:96846,30.38,17.82,-143.27,0.13,0.37,0.79,0.88,0.81
6:7:24:34:96974,26.25,14.85,-145.52,0.25,0.51,1.24,1.36,0.9
6:7:24:34:97054,22.89,16.85,-149.26,0.31,0.47,1.26,1.38,1.21
6:7:24:34:97149,22.25,22.27,-153.36,0.42,0.19,0.73,0.86,1.2
6:7:24:34:97245,21.14,25.32,-157.46,0.39,0.26,0.6,0.76,1.0
6:7:24:35:97656,29.89,23.34,-154.65,0.65,0.41,0.95,1.23,0.95
6:7:24:35:97800,30.63,24.76,-149.04,0.6,0.39,0.74,1.03,1.01
6:7:24:35:97864,28.61,22.6,-146.42,0.24,0.27,0.55,0.66,0.97
6:7:24:35:97945,26.26,19.47,-146.45,0.08,0.3,0.86,0.92,0.87
6:7:24:35:98072,24.7,16.54,-146.01,0.24,0.39,0.95,1.06,0.88
6:7:24:35:98167,23.69,15.45,-147.3,0.5,0.4,1.07,1.25,1.08
6:7:24:35:98247,23.02,16.39,-151.63,0.46,0.2,0.87,1.0,1.1
6:7:24:36:98654,28.37,17.48,-160.22,0.6,0.46,1.03,1.28,1.18
6:7:24:36:98750,31.54,18.88,-154.06,0.65,0.46,0.89,1.19,1.16
6:7:24:36:98863,29.23,23.35,-148.29,0.58,0.27,0.8,1.02,1.17
6:7:24:36:98958,26.19,23.25,-143.27,0.2,0.2,0.43,0.51,0.91
6:7:24:36:99070,24.83,19.06,-139.77,0.17,0.27,0.72,0.79,0.77
6:7:24:36:99151,26.13,17.19,-139.26,0.5,0.32,1.23,1.36,0.89
6:7:24:36:99247,28.18,15.88,-141.27,0.45,0.3,1.17,1.29,1.15
6:7:24:37:99646,36.52,22.13,-153.63,0.31,0.74,0.83,1.16,1.27
6:7:24:37:99774,35.64,21.33,-155.49,0.56,0.65,0.96,1.28,1.24
6:7:24:37:99854,37.45,21.1,-146.42,0.72,0.55,0.73,1.17,1.2
6:7:24:37:99951,34.11,23.36,-138.31,0.67,0.27,0.67,0.99,1.14
6:7:24:37:100047,33.57,20.88,-131.14,0.22,0.22,0.49,0.58,0.91
6:7:24:37:100142,31.15,17.63,-129.27,0.14,0.26,0.81,0.87,0.81
6:7:24:37:100254,29.05,13.7,-128.9,0.37,0.44,1.22,1.35,0.93
6:7:24:38:100647,23.19,10.67,-157.93,0.12,0.37,0.66,0.77,1.0
6:7:24:38:100743,27.73,4.01,-161.99,-0.1,0.53,0.97,1.1,1.07
6:7:24:38:100886,28.15,4.93,-162.13,0.33,0.57,1.18,1.35,1.08
6:7:24:38:100935,25.56,12.06,-157.2,0.46,0.45,0.91,1.11,1.19
6:7:24:38:101031,30.32,17.34,-148.81,0.41,0.31,0.69,0.86,1.11
6:7:24:38:101142,31.09,19.15,-145.09,0.27,0.22,0.5,0.61,0.86
6:7:24:38:101238,28.78,15.56,-145.05,0.18,0.36,0.85,0.94,0.8
6:7:24:39:101652,18.47,16.21,-153.41,0.14,0.18,0.52,0.57,0.7
6:7:24:39:101733,21.33,15.97,-151.93,0.1,0.22,0.65,0.69,0.73
6:7:24:39:101844,24.46,14.72,-151.41,0.33,0.43,1.05,1.18,0.81
6:7:24:39:101956,29.96,13.19,-148.22,0.29,0.6,1.03,1.23,1.03
6:7:24:39:102068,29.25,16.25,-144.77,0.44,0.39,0.73,0.94,1.11
6:7:24:39:102149,27.77,19.51,-142.13,0.46,0.19,0.7,0.86,1.01
6:7:24:39:102260,29.09,14.27,-138.79,0.16,0.18,0.48,0.54,0.78
6:7:24:40:102673,19.32,7.91,-152.53,0.26,0.16,0.76,0.82,0.74
6:7:24:40:102754,19.43,8.69,-156.68,0.08,0.17,0.48,0.51,0.63
6:7:24:40:102850,20.8,12.96,-158.09,0.14,0.35,0.74,0.83,0.72
6:7:24:40:102946,22.3,14.72,-159.48,0.32,0.49,1.07,1.22,0.85
6:7:24:40:103058,25.15,12.99,-157.35,0.59,0.56,1.23,1.48,1.18
6:7:24:40:103138,26.29,15.63,-153.71,0.45,0.19,1.02,1.13,1.28
6:7:24:40:103234,27.7,19.33,-144.84,0.17,0.19,0.51,0.57,1.06
6:7:24:41:103695,19.58,14.1,-143.24,0.42,0.06,0.89,0.99,0.89
6:7:24:41:103743,16.34,12.93,-147.16,0.24,0.03,0.72,0.76,0.77
6:7:24:41:103855,13.47,13.99,-150.66,0.07,0.23,0.51,0.56,0.77
6:7:24:41:103934,9.91,14.73,-154.84,0.18,0.16,1.12,1.14,0.82
6:7:24:41:104063,11.45,14.53,-154.64,0.34,0.19,1.3,1.36,1.02
6:7:24:41:104175,14.43,14.37,-149.05,0.42,0.28,1.21,1.31,1.27
6:7:24:41:104238,14.86,18.45,-141.63,0.5,0.11,0.9,1.04,1.24
6:7:24:42:104669,14.91,13.34,-130.46,0.26,0.15,1.14,1.18,1.17
6:7:24:42:104749,15.27,12.7,-136.3,0.37,0.07,1.05,1.12,1.11
6:7:24:42:104845,14.98,12.44,-142.74,0.19,0.06,0.68,0.71,1.0
6:7:24:42:104989,15.04,13.97,-146.45,0.04,0.21,0.49,0.54,0.79
6:7:24:42:105037,13.86,12.74,-151.2,0.18,0.25,1.17,1.21,0.82
6:7:24:42:105165,16.23,11.27,-150.7,0.29,0.35,1.2,1.28,1.01
6:7:24:42:105261,18.48,13.3,-144.23,0.3,0.24,0.91,0.99,1.16
6:7:24:43:105650,16.81,12.22,-130.79,0.21,0.3,1.28,1.34,1.2
6:7:24:43:105746,14.48,12.35,-131.99,0.28,0.17,1.17,1.21,1.18
6:7:24:43:105843,13.31,11.13,-136.27,0.33,0.04,1.1,1.15,1.23
6:7:24:43:105954,12.4,10.14,-141.6,0.09,0.08,0.68,0.69,1.02
6:7:24:43:106050,9.17,10.73,-146.38,-0.02,0.21,0.57,0.6,0.81
6:7:24:43:106146,4.46,10.64,-151.05,0.2,0.08,1.43,1.44,0.91
6:7:24:43:106242,6.22,12.53,-149.33,0.23,0.08,1.27,1.3,1.11
6:7:24:44:106654,12.61,15.16,-130.35,0.21,0.25,1.17,1.22,1.32
6:7:24:44:106750,8.01,15.68,-132.31,0.31,0.15,1.23,1.27,1.26
6:7:24:44:106846,6.75,13.95,-134.36,0.39,-0.02,1.26,1.32,1.27
6:7:24:44:106943,11.47,16.22,-133.06,0.43,0.02,0.88,0.98,1.19
6:7:24:44:107038,14.46,17.45,-134.41,0.12,0.09,0.45,0.48,0.93
6:7:24:44:107135,13.89,16.42,-138.33,0.11,0.16,0.79,0.82,0.76
6:7:24:44:107262,15.66,13.17,-140.2,0.21,0.32,1.25,1.3,0.86
6:7:24:45:107674,17.07,19.35,-130.66,0.1,0.23,0.59,0.64,0.92
6:7:24:45:107754,16.37,16.92,-129.5,0.19,0.36,0.97,1.05,1.0
6:7:24:45:107850,16.56,14.41,-130.76,0.29,0.32,1.21,1.28,0.99
6:7:24:45:107947,14.6,14.05,-135.02,0.48,0.08,1.26,1.36,1.23
6:7:24:45:108059,16.65,16.42,-138.36,0.38,0.13,0.85,0.94,1.19
6:7:24:45:108138,18.1,17.5,-141.01,0.11,0.21,0.43,0.49,0.93
6:7:24:45:108234,18.29,17.03,-143.02,0.11,0.43,0.85,0.96,0.8
6:7:24:46:108674,27.69,22.64,-135.15,0.4,0.24,0.65,0.8,0.75
6:7:24:46:108754,27.69,21.13,-131.03,0.09,0.36,0.57,0.68,0.81
6:7:24:46:108865,26.96,21.16,-128.78,0.3,0.45,0.91,1.06,0.85
6:7:24:46:108962,26.15,22.5,-129.48,0.41,0.45,1.16,1.31,1.01
6:7:24:46:109058,25.24,24.8,-132.91,0.56,0.38,1.0,1.21,1.19
6:7:24:46:109153,20.01,28.86,-141.14,0.51,0.09,0.79,0.94,1.15
6:7:24:46:109249,19.18,29.89,-145.31,0.3,0.1,0.55,0.63,0.93
6:7:24:47:109659,31.39,29.14,-130.84,0.73,0.51,0.72,1.15,0.91
6:7:24:47:109770,32.72,28.34,-129.83,0.46,0.19,0.71,0.87,0.88
6:7:24:47:109835,41.63,24.88,-123.09,0.25,0.5,0.57,0.79,0.94
6:7:24:47:109946,43.92,22.53,-120.87,0.27,0.72,0.55,0.94,0.87
6:7:24:47:110075,40.93,18.62,-124.29,0.48,0.79,0.81,1.23,0.99
6:7:24:47:110139,37.53,13.63,-130.94,0.42,0.63,0.82,1.12,1.09
6:7:24:47:110251,36.53,14.18,-134.83,0.36,0.56,0.49,0.83,1.06
6:7:24:49:111658,16.35,3.92,-137.84,0.6,0.22,1.1,1.27,1.07
6:7:24:49:111770,27.52,-2.01,-119.05,0.55,0.42,0.99,1.21,1.1
6:7:24:49:111850,37.61,-11.79,-98.97,0.1,0.84,0.55,1.01,1.16
6:7:24:49:111946,40.65,-17.55,-91.42,-0.19,0.55,0.26,0.64,0.95
6:7:24:49:112057,36.06,-24.27,-91.13,-0.28,0.75,0.31,0.86,0.84
6:7:24:49:112154,30.01,-26.74,-101.43,-0.32,0.86,0.76,1.19,0.9
6:7:24:49:112266,29.95,-31.76,-111.35,-0.44,0.88,0.88,1.32,1.13
6:7:24:50:112676,23.78,-1.48,-147.41,0.27,0.49,0.56,0.8,1.1
6:7:24:50:112756,14.9,-7.62,-144.42,0.07,0.85,1.33,1.58,1.23
6:7:24:50:112836,12.11,-2.59,-144.16,0.6,0.67,1.19,1.5,1.29
6:7:24:50:112963,7.61,-0.51,-141.3,0.38,0.35,0.92,1.06,1.38
6:7:24:50:113060,5.37,3.67,-140.76,0.11,0.25,0.45,0.53,1.03
6:7:24:50:113156,5.88,-1.25,-140.26,0.02,0.34,0.82,0.89,0.83
6:7:24:50:113251,6.43,-3.67,-141.61,0.0,0.55,1.18,1.31,0.91
6:7:24:51:113673,9.03,-3.98,-151.97,0.09,0.2,0.56,0.61,0.93
6:7:24:51:113737,8.53,-1.89,-154.67,0.02,0.27,0.98,1.02,0.98
6:7:24:51:113865,8.54,-1.56,-152.74,0.33,0.4,1.39,1.48,1.04
6:7:24:51:113945,9.07,0.12,-148.83,0.42,0.29,0.96,1.09,1.2
6:7:24:51:114041,8.37,1.6,-144.46,0.42,0.3,0.81,0.96,1.17
6:7:24:51:114184,9.29,5.85,-142.8,0.25,0.1,0.56,0.62,0.89
6:7:24:51:114264,8.3,6.29,-141.48,0.03,0.21,0.7,0.73,0.77
6:7:24:52:114645,2.73,-1.62,-145.02,0.12,0.16,0.71,0.74,0.7
6:7:24:52:114757,2.62,2.03,-148.89,-0.08,0.14,0.63,0.65,0.71
6:7:24:52:114852,2.87,2.83,-152.38,0.09,0.14,0.94,0.96,0.78
6:7:24:52:114948,4.62,-0.41,-153.67,0.25,0.09,1.32,1.34,0.99
6:7:24:52:115044,3.02,1.67,-150.09,0.48,0.15,1.23,1.33,1.21
6:7:24:52:115141,5.02,3.81,-145.65,0.33,0.24,0.81,0.91,1.19
6:7:24:52:115268,4.43,3.55,-143.76,0.1,0.1,0.54,0.56,0.93
6:7:24:53:115660,0.89,-0.73,-143.22,0.2,0.03,1.01,1.03,0.83
6:7:24:53:115756,5.16,0.95,-145.91,0.11,0.09,0.68,0.7,0.76
6:7:24:53:115836,7.17,2.64,-149.04,0.01,0.2,0.66,0.69,0.8
6:7:24:53:115948,7.4,2.22,-152.97,0.04,0.17,0.99,1.01,0.8
6:7:24:53:116043,8.39,0.97,-153.38,0.21,0.2,1.3,1.33,1.01
6:7:26:24:206662,67.22,1.83,-139.47,0.07,0.9,0.56,1.06,1.02
6:7:26:24:206758,70.94,2.65,-136.55,0.08,0.87,0.33,0.94,0.99
6:7:26:24:206869,72.43,-0.08,-135.21,0.12,0.93,0.17,0.95,0.98
6:7:26:24:206966,71.14,-5.18,-135.13,-0.11,0.93,0.33,0.99,0.96
6:7:26:24:207045,72.45,-10.74,-136.41,-0.3,1.02,0.37,1.12,1.02
6:7:26:24:207174,74.91,-16.08,-137.57,-0.39,1.11,0.11,1.18,1.1
6:7:26:24:207269,73.73,-16.85,-139.71,-0.22,0.89,0.23,0.95,1.08
6:7:26:25:207659,72.2,-17.84,-150.46,-0.42,0.93,0.28,1.06,1.06
6:7:26:25:207770,75.53,-17.77,-154.14,-0.36,0.91,0.18,1.0,1.0
6:7:26:25:207866,76.81,-19.26,-157.13,-0.38,0.89,0.21,0.99,1.02
6:7:26:25:207946,77.69,-18.5,-159.95,-0.35,0.95,0.17,1.02,1.0
6:7:26:25:208043,76.04,-18.91,-163.03,-0.36,0.93,0.2,1.01,1.01
6:7:26:25:208170,76.28,-17.37,-166.56,-0.25,0.96,0.18,1.0,1.01
6:7:26:25:208266,74.08,-15.8,-167.7,-0.23,0.92,0.32,1.0,1.01
6:7:26:26:208678,71.11,-9.24,-173.68,-0.12,0.93,0.35,1.0,1.0
6:7:26:26:208758,71.95,-8.47,-175.26,-0.16,0.97,0.39,1.05,1.02
6:7:26:26:208871,72.75,-7.94,-176.32,-0.14,0.94,0.35,1.01,1.02
6:7:26:26:208967,71.19,-8.72,-175.89,-0.14,0.88,0.38,0.97,1.01
6:7:26:26:209062,71.25,-8.29,-175.22,-0.2,0.97,0.39,1.07,1.02
6:7:26:26:209158,71.32,-8.89,-174.3,-0.15,0.97,0.35,1.04,1.03
6:7:26:26:209270,70.59,-9.03,-173.48,-0.16,0.88,0.34,0.96,1.02
6:7:26:27:209655,69.93,-10.09,-169.38,-0.23,0.95,0.4,1.05,1.02
6:7:26:27:209750,69.26,-10.43,-167.44,-0.29,1.17,0.51,1.31,1.11
6:7:26:27:209862,63.57,-12.07,-163.93,-0.25,1.0,0.55,1.17,1.18
6:7:26:27:209957,53.61,-12.93,-157.53,-0.28,0.8,0.59,1.03,1.17
6:7:26:27:210070,45.35,-8.91,-150.42,-0.14,0.51,0.42,0.68,0.96
6:7:26:27:210166,40.48,-4.42,-143.45,-0.16,0.48,0.48,0.7,0.8
6:7:26:27:210261,41.6,-1.16,-138.9,-0.13,0.48,0.71,0.87,0.75
6:7:26:28:210660,44.38,-3.82,-116.1,0.13,0.68,0.5,0.85,0.81
6:7:26:28:210772,46.38,-12.62,-118.48,-0.15,0.75,0.69,1.03,0.92
6:7:26:28:210868,51.68,-18.64,-123.86,-0.17,0.8,0.7,1.08,0.99
6:7:26:28:210964,58.86,-20.89,-130.58,-0.31,0.88,0.63,1.13,1.08
6:7:26:28:211060,64.11,-20.85,-137.28,-0.35,0.91,0.5,1.1,1.1
6:7:26:28:211172,64.42,-20.53,-142.93,-0.34,0.86,0.43,1.02,1.08
6:7:26:28:211253,63.57,-21.47,-147.9,-0.38,0.82,0.39,0.98,1.03
6:7:26:29:211653,67.01,-24.89,-156.28,-0.41,0.85,0.39,1.02,1.01
6:7:26:29:211749,67.79,-23.79,-156.29,-0.43,0.85,0.37,1.02,1.01
6:7:26:29:211844,67.67,-24.77,-156.01,-0.46,0.83,0.35,1.01,1.02
6:7:26:29:211941,68.02,-25.44,-155.18,-0.44,0.88,0.34,1.04,1.02
6:7:26:29:212068,67.98,-24.2,-153.63,-0.38,0.84,0.36,0.99,1.01
6:7:26:29:212164,67.44,-23.53,-151.39,-0.42,0.94,0.32,1.08,1.04
6:7:26:29:212244,66.8,-23.85,-150.01,-0.36,0.74,0.33,0.89,0.99
6:7:26:30:212644,64.99,-21.15,-146.18,-0.32,0.84,0.42,0.99,0.99
6:7:26:30:212772,66.19,-18.81,-145.59,-0.21,0.87,0.41,0.99,0.95
6:7:26:30:212853,66.12,-14.21,-146.28,-0.14,0.93,0.46,1.04,1.01
6:7:26:30:212948,65.38,-11.21,-147.68,-0.13,0.87,0.48,1.01,1.01
6:7:26:30:213043,63.75,-10.64,-147.82,-0.21,0.79,0.53,0.97,1.01
6:7:26:30:213157,64.41,-10.99,-147.15,-0.26,0.92,0.43,1.05,1.01
6:7:26:30:213268,65.24,-13.57,-145.47,-0.3,0.88,0.4,1.01,1.01
6:7:26:31:213652,72.45,-25.23,-144.95,-0.42,0.85,0.25,0.98,1.01
6:7:26:31:213747,77.86,-27.36,-147.67,-0.53,0.86,0.09,1.01,1.0
6:7:26:31:213844,83.83,-28.34,-150.89,-0.46,0.94,-0.04,1.05,1.01
6:7:26:31:213957,89.54,-27.28,-154.27,-0.53,0.9,-0.04,1.04,1.03
6:7:26:31:214054,92.85,-26.8,-157.73,-0.52,0.94,-0.06,1.07,1.05
6:7:26:31:214148,93.67,-26.43,-162.1,-0.43,0.91,-0.09,1.01,1.04
6:7:26:31:214274,93.39,-24.9,-165.69,-0.44,0.91,-0.03,1.01,1.03
6:7:26:32:214674,88.41,-21.41,-171.41,-0.49,0.98,-0.08,1.1,1.04
6:7:26:32:214753,86.62,-22.56,-171.59,-0.4,0.91,0.06,1.0,1.04
6:7:26:32:214865,83.64,-22.76,-169.9,-0.29,0.86,0.26,0.95,1.02
6:7:26:32:214961,83.66,-21.22,-166.08,-0.24,1.12,0.08,1.15,1.03
6:7:26:32:215057,83.66,-19.73,-162.61,-0.29,0.86,0.12,0.91,1.0
6:7:26:32:215156,79.5,-21.0,-158.52,-0.39,0.8,0.21,0.91,0.99
6:7:26:32:215249,80.09,-22.64,-153.71,-0.38,0.85,0.1,0.93,0.92
6:7:26:33:215657,79.49,-32.38,-124.97,-0.5,1.02,-0.02,1.14,0.99
6:7:26:33:215753,78.47,-31.89,-116.69,-0.41,0.94,-0.02,1.03,1.03
6:7:26:33:215848,79.46,-25.49,-111.64,-0.26,0.71,0.0,0.75,0.97
6:7:26:33:215944,76.13,-18.38,-108.7,-0.25,0.66,0.18,0.73,0.83
6:7:26:33:216041,72.99,-12.97,-108.76,-0.24,0.82,0.22,0.88,0.79
6:7:26:33:216152,68.63,-10.05,-112.17,-0.18,1.28,0.38,1.35,0.99
6:7:26:33:216264,68.39,-6.0,-119.45,-0.02,1.33,0.17,1.34,1.19
6:7:26:34:216648,67.86,-13.06,-139.91,-0.49,1.1,0.1,1.21,1.3
6:7:26:34:216759,66.32,-16.54,-136.59,-0.53,1.22,0.26,1.35,1.3
6:7:26:34:216855,66.75,-18.09,-127.68,-0.45,1.22,0.01,1.3,1.29
6:7:26:34:216952,68.8,-11.93,-121.06,-0.1,0.65,-0.09,0.66,1.11
6:7:26:34:217048,65.42,-5.46,-117.55,-0.11,0.58,0.1,0.6,0.85
6:7:26:34:217143,64.26,-3.37,-114.99,-0.32,1.18,0.28,1.25,0.84
6:7:26:34:217271,61.09,-2.56,-117.86,-0.47,1.19,0.34,1.33,1.06
6:7:26:35:217663,49.65,-13.06,-133.67,-0.38,0.49,0.08,0.63,1.07
6:7:26:35:217759,51.38,-16.43,-138.28,-0.81,1.09,0.0,1.36,1.11
6:7:26:35:217856,56.75,-14.83,-141.49,-0.67,1.41,0.12,1.57,1.19
6:7:26:35:217967,59.2,-10.47,-138.82,-0.39,1.07,-0.04,1.14,1.36
6:7:26:35:218063,61.57,-4.47,-134.17,-0.21,0.66,0.07,0.7,1.14
6:7:26:35:218159,64.72,5.61,-131.03,-0.17,0.63,0.13,0.67,0.83
6:7:26:35:218256,63.19,10.86,-127.74,-0.21,1.01,0.22,1.05,0.81
6:7:26:36:218655,53.33,0.01,-145.4,-0.16,0.69,0.01,0.71,0.81
6:7:26:36:218752,52.3,-5.54,-149.63,-0.24,0.57,-0.0,0.62,0.8
6:7:26:36:218862,49.55,-10.65,-152.97,-0.37,0.87,0.02,0.94,0.76
6:7:26:36:218959,50.91,-14.85,-152.02,-0.81,1.35,0.03,1.57,1.05
6:7:26:36:219056,55.47,-10.79,-149.88,-0.45,1.27,-0.11,1.35,1.29
6:7:26:36:219152,55.97,-8.73,-142.85,-0.26,0.81,-0.11,0.86,1.26
6:7:26:36:219247,55.17,-0.83,-137.03,-0.13,0.46,-0.05,0.48,0.9
6:7:26:37:219659,45.17,2.11,-149.22,-0.14,1.16,-0.0,1.17,0.84
6:7:26:37:219771,42.25,-2.03,-155.4,-0.08,0.53,0.05,0.53,0.73
6:7:26:37:219868,42.5,-10.28,-159.28,-0.23,0.68,-0.13,0.73,0.81
6:7:26:37:219948,42.07,-16.35,-164.16,-0.68,0.91,0.01,1.13,0.8
6:7:26:37:220076,41.23,-19.67,-164.26,-0.61,1.26,-0.16,1.41,1.09
6:7:26:37:220171,41.88,-22.03,-156.41,-0.56,1.13,-0.08,1.26,1.27
6:7:26:37:220251,45.44,-17.54,-151.16,-0.45,0.77,-0.17,0.91,1.19
6:7:26:38:220652,37.67,-0.61,-158.95,-0.4,1.58,-0.03,1.63,1.27
6:7:26:38:220747,35.28,-4.87,-163.38,-0.17,0.89,0.07,0.9,1.15
6:7:26:38:220843,32.67,-10.73,-165.46,-0.21,0.6,0.08,0.64,1.06
6:7:26:38:220955,31.21,-14.91,-167.07,-0.32,0.63,0.04,0.71,0.75
6:7:26:38:221051,30.16,-19.41,-166.93,-0.7,1.02,-0.04,1.24,0.86
6:7:26:38:221147,30.51,-19.68,-165.63,-0.66,1.09,-0.01,1.27,1.07
6:7:26:38:221259,37.16,-17.78,-163.63,-0.44,0.98,-0.05,1.08,1.2
6:7:26:39:221653,38.05,0.28,-159.15,-0.47,0.93,0.39,1.12,1.16
6:7:26:39:221748,35.53,-0.63,-162.28,-0.33,1.06,0.29,1.15,1.11
6:7:26:39:221844,34.6,-5.74,-166.22,-0.34,1.2,0.09,1.25,1.17
6:7:26:39:221956,35.72,-9.21,-172.21,-0.17,0.62,0.02,0.64,1.01
6:7:26:39:222051,36.53,-15.95,-175.61,-0.29,0.47,0.07,0.56,0.82
6:7:26:39:222180,31.42,-28.37,-171.86,-0.92,1.08,-0.02,1.42,0.87
6:7:26:39:222260,35.75,-27.62,-172.51,-0.81,1.15,-0.16,1.42,1.13
6:7:26:40:222684,44.82,-8.87,-165.17,-0.41,0.81,0.23,0.94,1.26
6:7:26:40:222764,42.46,-7.52,-166.35,-0.48,1.11,0.26,1.23,1.2
6:7:26:40:222860,38.21,-8.19,-172.62,-0.45,1.27,0.29,1.38,1.18
6:7:26:40:222987,37.7,-11.38,-179.29,-0.3,0.87,0.27,0.96,1.19
6:7:26:40:223067,38.28,-14.74,176.93,-0.27,0.62,0.1,0.68,1.01
6:7:26:40:223180,37.55,-18.56,175.56,-0.42,0.7,0.1,0.82,0.82
6:7:26:40:223260,37.51,-21.13,176.54,-0.62,1.06,0.12,1.24,0.91
6:7:26:41:223657,46.13,-5.23,-171.13,-0.23,0.72,0.18,0.77,0.95
6:7:26:41:223753,44.89,-0.07,-171.83,-0.43,0.96,0.39,1.13,1.05
6:7:26:41:223881,42.44,-0.07,-173.73,-0.24,1.39,0.25,1.43,1.11
6:7:26:41:223960,39.28,-5.02,-176.5,-0.18,1.25,0.32,1.3,1.29
6:7:26:41:224120,41.55,-10.38,179.25,-0.11,0.81,0.22,0.84,1.19
6:7:26:41:224153,42.43,-16.63,175.47,-0.21,0.58,0.09,0.63,0.92
6:7:26:41:224249,42.43,-21.17,172.95,-0.38,0.74,0.09,0.84,0.77
6:7:26:42:224658,48.51,-14.61,-173.73,-0.13,0.55,0.06,0.57,0.68
6:7:26:42:224769,47.47,-10.65,-170.52,-0.13,0.62,0.13,0.65,0.69
6:7:26:42:224867,48.34,-11.08,-170.0,-0.43,1.04,0.31,1.17,0.8
6:7:26:42:224962,46.85,-10.97,-173.17,-0.55,1.35,0.22,1.47,1.1
6:7:26:42:225058,44.26,-14.3,-178.26,-0.33,1.14,0.01,1.18,1.27
6:7:26:42:225154,44.45,-19.37,176.57,-0.18,0.78,0.05,0.8,1.15
6:7:26:42:225250,42.96,-24.02,174.23,-0.25,0.56,0.02,0.62,0.87
6:7:26:43:225650,44.62,-26.96,-177.78,-0.34,0.9,-0.05,0.96,0.79
6:7:26:43:225746,46.64,-21.47,-175.23,-0.19,0.59,0.11,0.63,0.74
6:7:26:43:225857,45.96,-16.38,-173.96,-0.35,0.83,0.33,0.96,0.85
6:7:26:43:225969,44.56,-14.29,-173.5,-0.48,1.1,0.29,1.24,0.94
6:7:26:43:226066,41.52,-13.53,-176.43,-0.35,1.11,0.28,1.2,1.13
6:7:26:43:226161,40.28,-17.08,179.27,-0.23,1.11,0.14,1.15,1.19
6:7:26:43:226257,41.73,-21.51,173.86,-0.17,0.77,0.09,0.79,1.05
6:7:26:44:226650,45.84,-33.14,178.66,-0.37,1.06,-0.02,1.12,1.02
6:7:26:44:226746,45.15,-29.49,-175.01,-0.26,0.81,0.16,0.87,0.93
6:7:26:44:226841,48.91,-24.81,-170.45,-0.37,0.67,0.13,0.77,0.92
6:7:26:44:226969,50.58,-19.94,-168.65,-0.36,0.79,0.23,0.9,0.85
6:7:26:44:227066,51.4,-21.33,-167.78,-0.45,0.94,0.11,1.05,0.91
6:7:26:44:227161,48.09,-24.15,-170.34,-0.52,1.19,0.17,1.31,1.09
6:7:26:44:227257,47.56,-26.05,-175.91,-0.38,1.04,0.04,1.11,1.16
6:7:26:45:227654,46.3,-33.44,-179.49,-0.68,1.34,0.07,1.5,1.31
6:7:26:45:227751,48.46,-31.93,-174.73,-0.51,0.99,0.09,1.12,1.25
6:7:26:45:227862,56.39,-30.45,-169.8,-0.39,0.91,-0.02,0.99,1.2
6:7:26:45:227958,58.95,-24.93,-167.24,-0.28,0.58,0.17,0.67,0.92
6:7:26:45:228054,54.82,-20.45,-163.9,-0.41,0.85,0.25,0.97,0.88
6:7:26:45:228150,53.96,-17.82,-165.04,-0.54,1.02,0.28,1.19,0.94
6:7:26:45:228262,50.41,-16.35,-170.66,-0.36,1.17,0.4,1.29,1.15
6:7:26:46:228657,52.96,-32.93,169.38,-0.58,1.02,0.16,1.18,1.22
6:7:26:46:228769,53.39,-33.62,174.86,-0.59,1.22,0.15,1.37,1.28
6:7:26:46:228865,56.35,-31.58,-177.2,-0.37,0.88,0.03,0.95,1.17
6:7:26:46:228961,61.61,-30.58,-170.55,-0.26,0.75,0.09,0.8,1.04
6:7:26:46:229056,61.2,-26.38,-164.78,-0.28,0.61,0.19,0.69,0.81
6:7:26:46:229153,58.47,-24.09,-160.41,-0.56,0.91,0.33,1.12,0.87
6:7:26:46:229265,57.56,-23.5,-161.28,-0.53,1.31,0.34,1.45,1.09
6:7:26:47:229649,64.23,-31.84,170.72,-0.52,0.73,0.12,0.9,1.16
6:7:26:47:229744,63.56,-34.73,168.88,-0.76,1.14,0.08,1.37,1.24
6:7:26:47:229888,66.44,-34.51,170.61,-0.61,1.15,-0.03,1.31,1.19
6:7:26:47:229969,69.79,-30.86,174.59,-0.23,0.87,-0.16,0.91,1.2
6:7:26:47:230065,75.2,-21.07,176.57,-0.21,0.78,-0.04,0.81,1.01
6:7:26:47:230160,77.56,-15.41,176.58,-0.35,0.77,0.01,0.85,0.86
6:7:26:47:230256,76.42,-11.54,175.99,-0.25,1.12,-0.0,1.15,0.94
6:7:26:48:230662,68.92,-30.0,152.92,-0.21,0.51,-0.06,0.56,0.85
6:7:26:48:230758,69.65,-37.67,145.88,-0.42,0.84,-0.09,0.95,0.89
6:7:26:48:230854,71.3,-45.48,142.14,-0.86,1.18,-0.14,1.46,0.99
6:7:26:48:230950,67.27,-44.98,148.87,-0.59,1.0,-0.1,1.17,1.19
6:7:26:48:231046,61.67,-43.98,161.5,-0.47,1.09,-0.23,1.21,1.28
6:7:26:48:231174,64.15,-38.32,169.23,-0.21,0.61,-0.11,0.66,1.01
6:7:26:48:231286,62.42,-32.04,175.27,-0.29,0.72,-0.01,0.77,0.88
6:7:26:49:231654,56.2,-32.31,163.47,-0.26,0.88,-0.0,0.92,0.78
6:7:26:49:231766,57.14,-33.83,156.52,-0.2,0.42,0.0,0.47,0.72
6:7:26:49:231862,57.43,-39.71,152.59,-0.4,0.73,0.1,0.83,0.74
6:7:26:49:231958,58.56,-47.6,153.39,-0.92,1.27,-0.1,1.57,0.96
6:7:26:49:232086,61.57,-45.08,157.1,-0.59,0.93,-0.21,1.12,1.18
6:7:26:49:232165,58.68,-45.18,168.22,-0.49,0.96,-0.29,1.12,1.27
6:7:26:49:232261,61.35,-36.7,173.21,-0.21,0.56,-0.01,0.6,0.95
6:7:26:50:232658,63.07,-37.83,161.0,-0.48,1.26,-0.19,1.36,1.03
6:7:26:50:232819,62.05,-41.79,154.01,-0.27,0.6,-0.04,0.66,0.87
6:7:26:50:232851,62.38,-48.24,148.46,-0.37,0.39,0.07,0.54,0.85
6:7:26:50:232947,56.48,-54.07,150.56,-0.58,0.76,-0.05,0.96,0.72
6:7:26:50:233058,54.44,-54.86,153.37,-0.89,0.98,-0.14,1.33,0.94
6:7:26:50:233138,54.29,-52.62,159.93,-0.73,1.15,-0.3,1.4,1.23
6:7:26:50:233266,53.73,-45.25,169.34,-0.49,0.66,-0.25,0.86,1.2
6:7:26:51:233650,51.73,-25.65,175.08,-0.34,1.19,0.1,1.24,1.17
6:7:26:51:233763,49.55,-30.32,169.89,-0.33,1.06,0.13,1.11,1.07
6:7:26:51:233858,55.67,-33.04,161.55,-0.26,0.62,0.03,0.68,1.01
6:7:26:51:233955,55.23,-38.35,160.64,-0.39,0.6,-0.12,0.72,0.84
6:7:26:51:234051,48.89,-43.46,163.94,-0.76,0.93,0.17,1.21,0.87
6:7:26:51:234178,48.9,-44.27,167.05,-0.71,1.31,0.1,1.49,1.14
6:7:26:51:234274,56.48,-42.67,168.45,-0.55,0.92,-0.34,1.12,1.28
6:7:26:52:234738,49.77,-33.14,177.62,-0.7,1.38,0.22,1.57,1.39
6:7:26:52:234770,50.64,-32.72,171.12,-0.44,0.99,-0.04,1.09,1.26
6:7:26:52:234850,52.98,-37.44,166.27,-0.46,0.76,0.04,0.89,1.18
6:7:26:52:234962,57.46,-38.44,162.72,-0.36,0.56,-0.07,0.67,0.88
6:7:26:52:235074,56.85,-42.66,160.86,-0.51,0.83,0.11,0.98,0.85
6:7:26:52:235186,49.52,-45.98,163.79,-0.99,1.12,0.24,1.51,1.06
6:7:26:52:235282,46.74,-40.71,169.35,-0.55,0.95,0.05,1.1,1.2
6:7:26:53:235655,46.38,-28.35,-171.33,-0.65,0.89,0.53,1.22,1.28
6:7:26:53:235768,48.35,-28.79,-173.31,-0.67,1.22,0.41,1.44,1.26
6:7:26:53:235895,50.32,-30.49,179.95,-0.31,1.12,0.23,1.18,1.28
6:7:26:53:235944,54.81,-34.68,171.85,-0.3,0.62,0.08,0.69,1.11
6:7:26:53:236040,57.07,-36.88,163.96,-0.41,0.52,0.04,0.66,0.84
6:7:26:53:236168,59.72,-39.79,154.59,-0.84,0.86,0.26,1.23,0.86
6:7:26:53:236264,58.59,-41.92,153.32,-0.79,1.06,0.11,1.33,1.07
6:7:26:54:236647,62.76,-34.24,173.33,-0.43,0.79,0.3,0.95,1.17
6:7:26:54:236760,56.46,-37.26,178.68,-0.88,1.11,0.3,1.45,1.24
6:7:26:54:236855,51.99,-36.9,177.33,-0.64,0.81,0.43,1.12,1.17
6:7:26:54:236984,51.03,-41.03,175.28,-0.6,1.03,0.19,1.21,1.26
6:7:26:54:237080,54.95,-38.87,168.05,-0.28,0.48,0.08,0.56,0.97
6:7:26:54:237159,57.57,-39.35,162.78,-0.5,0.45,0.14,0.69,0.82
6:7:26:54:237271,58.94,-41.57,159.72,-0.78,0.86,0.22,1.18,0.81
6:7:26:55:237648,69.97,-34.63,171.16,-0.29,0.52,0.12,0.6,0.83
6:7:26:55:237777,69.37,-33.96,170.46,-0.6,0.81,0.29,1.05,0.94
6:7:26:55:237888,70.88,-35.8,164.79,-0.9,1.1,0.27,1.45,1.03
6:7:26:55:237968,66.78,-38.18,160.17,-0.47,1.29,0.1,1.38,1.29
6:7:26:55:238065,69.97,-39.1,152.74,-0.38,0.84,0.04,0.92,1.25
6:7:26:55:238192,71.78,-36.58,146.11,-0.32,0.54,0.04,0.63,0.98
6:7:26:55:238272,74.07,-37.59,138.85,-0.54,0.57,0.06,0.79,0.78
6:7:26:56:238682,71.79,-45.05,157.19,-0.35,0.47,-0.04,0.59,0.67
6:7:26:56:238762,69.49,-41.57,162.2,-0.36,0.61,0.0,0.71,0.69
6:7:26:56:238858,68.08,-36.63,165.26,-0.58,0.92,0.26,1.12,0.8
6:7:26:56:238971,68.05,-34.21,165.24,-0.63,1.01,0.25,1.22,1.01
6:7:26:56:239066,67.8,-34.88,159.72,-0.49,1.06,0.31,1.21,1.18
6:7:26:56:239163,68.16,-35.93,154.0,-0.42,1.09,-0.04,1.17,1.2
6:7:26:56:239259,71.37,-37.74,147.22,-0.39,0.54,-0.07,0.67,1.02
6:7:26:57:239648,69.04,-46.29,156.26,-0.58,0.99,-0.29,1.18,1.01
6:7:26:57:239775,71.68,-41.87,163.01,-0.27,0.59,-0.02,0.66,0.84
6:7:26:57:239855,72.32,-35.05,166.33,-0.39,0.73,0.05,0.83,0.89
6:7:26:57:239951,68.26,-27.28,166.77,-0.62,1.04,0.41,1.28,0.92
6:7:26:57:240064,61.0,-24.35,166.96,-0.54,1.12,0.39,1.3,1.14
6:7:26:57:240144,58.9,-26.25,161.76,-0.15,1.22,0.22,1.24,1.27
6:7:26:57:240255,61.46,-33.44,155.82,-0.3,0.74,0.05,0.8,1.11
6:7:26:58:240671,55.11,-44.96,157.31,-0.6,1.1,-0.16,1.26,1.1
6:7:26:58:240767,54.25,-44.67,168.51,-0.48,0.89,-0.12,1.02,1.03
6:7:26:58:240864,58.0,-39.44,174.69,-0.29,0.57,0.15,0.66,0.98
6:7:26:58:240960,55.32,-33.3,-179.95,-0.54,0.63,0.33,0.9,0.86
6:7:26:58:241055,52.59,-28.4,-177.06,-0.69,0.89,0.47,1.22,0.92
6:7:26:58:241183,53.38,-25.08,178.52,-0.41,1.21,0.45,1.36,1.16
6:7:26:58:241312,55.64,-27.41,171.62,-0.31,0.83,0.16,0.9,1.16
6:7:27:0:242655,68.95,-38.63,148.06,-0.82,1.02,-0.1,1.31,1.19
6:7:27:0:242751,69.7,-40.08,151.79,-0.75,1.01,-0.17,1.26,1.16
6:7:27:0:242863,70.76,-39.81,160.05,-0.51,0.93,-0.18,1.07,1.22
6:7:27:0:242974,74.27,-37.17,168.0,-0.51,0.82,-0.14,0.98,1.1
6:7:27:0:243054,75.04,-31.2,172.74,-0.34,0.51,0.1,0.62,0.89
6:7:27:0:243182,73.13,-30.02,175.28,-0.53,0.82,0.18,0.99,0.86
6:7:27:0:243263,74.81,-31.02,172.04,-0.55,1.28,0.12,1.4,1.0
6:7:27:1:243656,75.92,-33.89,131.02,-0.58,0.72,0.13,0.93,1.11
6:7:27:1:243769,75.06,-39.1,126.14,-0.85,1.09,-0.05,1.38,1.24
6:7:27:1:243865,75.4,-40.3,129.43,-0.74,1.09,-0.23,1.34,1.22
6:7:27:1:243976,74.89,-40.36,138.3,-0.56,1.01,-0.41,1.22,1.31
6:7:27:1:244056,74.13,-38.53,147.14,-0.27,0.53,-0.05,0.59,1.05
6:7:27:1:244216,71.56,-35.8,154.39,-0.41,0.62,0.08,0.75,0.85
6:7:27:1:244264,70.31,-33.82,158.24,-0.64,0.97,0.12,1.17,0.84
6:7:27:2:244646,74.77,-32.11,141.04,-0.3,0.49,0.01,0.58,0.83
6:7:27:2:244757,75.6,-35.71,136.18,-0.6,0.71,0.05,0.93,0.89
6:7:27:2:244854,76.47,-38.26,135.63,-0.83,1.06,-0.05,1.35,0.95
6:7:27:2:244950,77.51,-38.08,140.71,-0.79,1.02,-0.17,1.3,1.19
6:7:27:2:245062,79.17,-37.76,147.49,-0.54,1.0,-0.3,1.18,1.28
6:7:27:2:245142,81.1,-37.18,153.56,-0.3,0.54,-0.14,0.63,1.04
6:7:27:2:245237,82.1,-34.55,155.36,-0.41,0.58,-0.01,0.71,0.84
6:7:27:3:245652,77.88,-33.26,135.32,-0.44,0.99,-0.13,1.09,0.81
6:7:27:3:245748,79.37,-34.32,130.08,-0.35,0.4,-0.1,0.54,0.78
6:7:27:3:245844,79.02,-35.0,125.65,-0.57,0.59,0.11,0.83,0.82
6:7:27:3:245955,79.13,-36.95,124.45,-0.87,1.07,-0.04,1.38,0.92
6:7:27:3:246052,82.54,-36.09,126.76,-0.74,1.17,-0.26,1.41,1.21
6:7:27:3:246147,80.92,-37.11,133.09,-0.49,0.73,-0.13,0.89,1.23
6:7:27:3:246260,80.15,-34.96,140.6,-0.3,0.71,-0.11,0.77,1.02
6:7:27:4:246649,80.67,-28.45,133.8,-0.53,1.07,-0.1,1.2,0.95
6:7:27:4:246761,80.24,-30.94,126.46,-0.36,0.91,0.19,1.0,0.99
6:7:27:4:246856,81.43,-30.74,123.15,-0.36,0.71,0.0,0.8,1.0
6:7:27:4:246953,80.14,-33.13,121.76,-0.47,0.68,0.02,0.83,0.88
6:7:27:4:247048,75.35,-35.48,125.24,-0.67,0.86,0.13,1.1,0.91
6:7:27:4:247159,68.6,-34.8,136.54,-0.72,0.97,0.14,1.22,1.05
6:7:27:4:247256,65.73,-32.6,148.43,-0.59,0.95,0.03,1.11,1.14
6:7:27:5:247672,66.18,-22.74,148.09,-0.28,0.89,0.33,0.99,1.11
6:7:27:5:247752,67.11,-23.73,133.67,-0.31,1.32,0.25,1.37,1.16
6:7:27:5:247848,69.33,-24.81,115.93,-0.12,1.08,0.25,1.12,1.16
6:7:27:5:247960,70.31,-23.95,100.22,-0.18,0.92,0.21,0.96,1.15
6:7:27:5:248057,69.8,-24.01,85.73,-0.25,0.8,0.17,0.86,0.98
6:7:27:5:248152,69.99,-27.07,70.89,-0.4,0.86,0.19,0.97,0.93
6:7:27:5:248279,71.92,-31.64,58.29,-0.52,0.88,0.13,1.03,0.95
6:7:27:6:248670,75.71,-43.77,33.22,-0.61,0.72,0.08,0.95,0.98
6:7:27:6:248767,72.95,-48.48,26.28,-0.77,0.72,0.09,1.06,1.01
6:7:27:6:248862,69.08,-54.81,20.35,-0.8,0.68,0.13,1.06,1.02
6:7:27:6:248975,64.55,-60.63,17.32,-0.76,0.53,0.14,0.94,1.02
6:7:27:6:249055,61.77,-66.91,14.01,-0.96,0.63,0.26,1.18,1.06
6:7:27:6:249167,52.4,-73.9,16.76,-0.75,0.54,0.45,1.03,1.05
6:7:27:6:249262,41.67,-77.02,21.23,-0.7,0.6,0.53,1.06,1.09
6:7:27:7:249659,-30.5,-73.97,78.94,-0.67,0.41,0.49,0.93,1.01
6:7:27:7:249787,-29.83,-74.23,78.66,-0.63,0.51,0.54,0.98,0.99
6:7:27:7:249867,-15.16,-76.09,68.37,-0.77,0.54,0.44,1.04,0.98
6:7:27:7:249964,-22.78,-77.81,78.07,-0.74,0.59,0.49,1.06,1.03
6:7:27:7:250059,-20.95,-78.66,77.28,-0.67,0.65,0.4,1.02,1.04
6:7:27:7:250171,-41.59,-79.26,98.03,-0.72,0.64,0.3,1.01,1.03
6:7:27:7:250251,-61.79,-81.52,118.87,-0.72,0.56,0.21,0.94,0.99
6:7:27:8:250658,-126.76,-83.09,-176.19,-0.81,0.64,0.19,1.05,1.0
6:7:27:8:250754,-110.83,-82.16,164.6,-0.8,0.69,0.25,1.09,1.03
6:7:27:8:250850,-66.14,-82.61,114.09,-0.74,0.65,0.38,1.05,1.06
6:7:27:8:250946,-29.1,-79.59,72.17,-0.64,0.63,0.45,1.01,1.05
6:7:27:8:251042,-24.12,-75.24,62.15,-0.54,0.6,0.54,0.97,1.01
6:7:27:8:251154,-24.29,-70.88,58.25,-0.66,0.49,0.69,1.07,1.01
6:7:27:8:251266,-29.53,-70.41,62.1,-0.47,0.47,0.55,0.86,0.97
6:7:27:9:251672,-92.77,-66.07,129.57,-0.9,0.53,0.47,1.14,1.03
6:7:27:9:251752,-99.37,-63.68,135.44,-0.87,0.42,0.43,1.06,1.02
6:7:27:9:251847,-94.74,-68.76,129.36,-0.83,0.42,0.37,1.0,1.07
6:7:27:9:251944,-87.1,-73.42,120.64,-0.8,0.41,0.36,0.97,1.01
6:7:27:9:252056,-80.18,-79.13,114.09,-0.81,0.44,0.33,0.98,0.98
6:7:27:9:252152,-146.75,-87.3,-175.93,-0.77,0.55,0.25,0.98,0.98
6:7:27:9:252250,141.83,-82.42,-102.59,-0.7,0.67,0.13,0.98,0.98
6:7:27:10:252670,-92.2,-83.29,116.81,-0.83,0.43,0.34,1.0,0.99
6:7:27:10:252750,-82.45,-83.52,105.4,-0.74,0.42,0.33,0.91,0.96
6:7:27:10:252847,-78.95,-84.1,100.82,-0.84,0.46,0.35,1.02,0.98
6:7:27:10:252975,-66.06,-85.76,86.33,-0.83,0.47,0.36,1.02,0.98
6:7:27:10:253054,-42.24,-86.31,60.45,-0.88,0.43,0.37,1.04,1.03
6:7:27:10:253165,0.39,-86.35,16.6,-0.84,0.47,0.36,1.02,1.03
6:7:27:10:253246,19.18,-85.47,-4.28,-0.81,0.46,0.35,1.0,1.02
6:7:27:11:253663,49.41,-82.55,-43.95,-0.83,0.44,0.39,1.02,1.02
6:7:27:11:253758,51.36,-81.8,-48.68,-0.85,0.45,0.37,1.03,1.02
6:7:27:11:253855,52.1,-81.09,-52.68,-0.83,0.44,0.37,1.01,1.02
6:7:27:11:253950,53.7,-80.17,-57.59,-0.83,0.43,0.37,1.0,1.01
6:7:27:11:254062,52.38,-79.32,-60.28,-0.84,0.45,0.41,1.04,1.02
6:7:27:11:254142,51.45,-78.87,-63.44,-0.84,0.45,0.44,1.05,1.03
6:7:27:11:254270,41.68,-75.84,-58.36,-0.76,0.41,0.48,0.99,1.03
6:7:27:12:254666,43.59,-67.13,-77.48,-0.73,0.43,0.53,1.0,1.02
6:7:27:12:254761,43.84,-66.1,-81.69,-0.75,0.4,0.52,1.0,1.0
6:7:27:12:254858,39.43,-65.83,-81.34,-0.74,0.37,0.52,0.97,0.99
6:7:27:12:254954,41.78,-64.98,-86.84,-0.75,0.41,0.53,1.0,0.99
6:7:27:12:255066,42.28,-64.18,-90.69,-0.75,0.4,0.53,1.0,0.99
6:7:27:12:255162,42.89,-63.4,-94.59,-0.76,0.4,0.54,1.02,1.01
6:7:27:12:255258,43.95,-62.48,-98.99,-0.75,0.4,0.52,0.99,1.0
6:7:27:13:255648,44.35,-59.25,-112.5,-0.75,0.39,0.52,0.99,1.0
6:7:27:13:255776,44.25,-58.49,-115.27,-0.76,0.37,0.53,1.0,0.99
6:7:27:13:255873,44.38,-58.03,-117.88,-0.77,0.4,0.52,1.02,1.0
6:7:27:13:255969,44.73,-57.31,-120.7,-0.79,0.4,0.52,1.03,1.02
6:7:27:13:256065,44.16,-56.35,-122.8,-0.77,0.39,0.53,1.01,1.02
6:7:27:13:256160,43.83,-55.47,-124.67,-0.77,0.39,0.5,0.99,1.01
6:7:27:13:256256,43.8,-54.41,-126.72,-0.74,0.41,0.5,0.98,1.0
6:7:27:14:256683,43.04,-52.43,-133.32,-0.78,0.41,0.54,1.03,1.0
6:7:27:14:256748,44.08,-51.7,-135.43,-0.75,0.42,0.5,1.0,1.0
6:7:27:14:256859,43.48,-51.0,-136.04,-0.74,0.41,0.51,0.98,1.0
6:7:27:14:256955,42.52,-50.55,-136.15,-0.75,0.41,0.52,1.0,0.99
6:7:27:14:257051,41.79,-50.31,-136.37,-0.72,0.42,0.53,0.99,0.99
6:7:27:14:257163,41.94,-50.16,-137.19,-0.75,0.44,0.51,1.01,1.0
6:7:27:14:257260,42.35,-50.07,-138.42,-0.74,0.43,0.52,1.0,1.0
6:7:27:15:257671,41.01,-49.54,-141.21,-0.75,0.43,0.52,1.01,1.01
6:7:27:15:257750,40.06,-48.97,-141.36,-0.75,0.4,0.53,1.0,1.01
6:7:27:15:257846,39.8,-48.63,-141.78,-0.75,0.41,0.52,1.0,1.01
6:7:27:15:257973,39.43,-48.62,-142.0,-0.73,0.4,0.53,0.99,1.0
6:7:27:15:258070,39.01,-48.54,-142.01,-0.73,0.39,0.54,0.99,0.99
6:7:27:15:258166,38.47,-48.64,-141.72,-0.75,0.4,0.55,1.01,1.0
6:7:27:15:258277,38.03,-48.4,-141.43,-0.73,0.41,0.55,1.0,1.0
6:7:27:16:258658,38.86,-47.84,-143.33,-0.73,0.42,0.53,0.99,1.0
6:7:27:16:258755,39.3,-48.2,-144.04,-0.73,0.41,0.54,0.99,1.0
6:7:27:16:258867,39.72,-48.91,-144.5,-0.76,0.41,0.53,1.02,1.0
6:7:27:16:258963,37.4,-50.56,-142.98,-0.76,0.34,0.51,0.98,1.0
6:7:27:16:259058,37.53,-50.88,-142.78,-0.74,0.36,0.49,0.96,0.98
6:7:27:16:259155,37.97,-51.93,-142.7,-0.81,0.4,0.49,1.03,0.99
6:7:27:16:259251,38.54,-53.65,-142.52,-0.81,0.36,0.47,1.0,1.0
6:7:27:17:259648,62.44,-69.16,-154.57,-0.95,0.27,0.25,1.02,1.02
6:7:27:17:259761,63.99,-70.58,-152.6,-0.94,0.3,0.15,0.99,1.0
6:7:27:17:259856,68.36,-72.7,-152.8,-0.98,0.29,0.18,1.04,1.02
6:7:27:17:259984,71.91,-73.72,-152.36,-0.95,0.23,0.14,0.99,1.01
6:7:27:17:260064,71.96,-73.37,-150.44,-0.97,0.29,0.13,1.02,1.02
6:7:27:17:260177,71.8,-72.62,-148.66,-0.98,0.31,0.14,1.04,1.02
6:7:27:17:260256,68.65,-71.74,-145.44,-0.98,0.25,0.17,1.03,1.03
6:7:27:18:260656,59.56,-60.93,-142.87,-0.84,0.4,0.3,0.98,1.01
6:7:27:18:260767,59.11,-59.57,-146.28,-0.85,0.42,0.27,0.98,1.0
6:7:27:18:260864,58.62,-57.41,-147.51,-0.78,0.5,0.37,1.0,0.99
6:7:27:18:260960,56.8,-55.09,-147.66,-0.81,0.48,0.39,1.02,1.0
6:7:27:18:261056,57.36,-55.71,-150.21,-0.85,0.41,0.32,0.99,1.0
6:7:27:18:261153,59.77,-55.88,-151.98,-0.81,0.5,0.41,1.04,1.01
6:7:27:18:261248,59.5,-55.72,-151.33,-0.82,0.5,0.32,1.01,1.01
6:7:27:19:261663,59.49,-54.85,-148.73,-0.76,0.5,0.29,0.96,1.0
6:7:27:19:261743,59.84,-54.58,-148.2,-0.79,0.56,0.3,1.01,0.99
6:7:27:19:261870,59.67,-53.9,-148.78,-0.83,0.52,0.31,1.03,1.0
6:7:27:19:261966,59.97,-54.18,-150.91,-0.82,0.45,0.32,0.99,1.01
6:7:27:19:262063,60.19,-55.06,-152.08,-0.83,0.48,0.31,1.01,1.01
6:7:27:19:262159,58.34,-55.78,-151.26,-0.86,0.49,0.34,1.05,1.02
6:7:27:19:262271,53.12,-53.83,-147.73,-0.86,0.48,0.39,1.06,1.04
6:7:27:20:262645,38.48,-43.64,-133.69,-0.68,0.45,0.58,1.01,1.04
6:7:27:20:262742,37.96,-42.81,-133.08,-0.66,0.45,0.59,1.0,1.02
6:7:27:20:262853,38.05,-42.62,-133.01,-0.68,0.46,0.58,1.01,1.01
6:7:27:20:262949,37.8,-42.62,-132.85,-0.66,0.46,0.6,1.01,1.01
6:7:27:20:263045,36.9,-42.26,-132.45,-0.66,0.46,0.61,1.01,1.01
6:7:27:20:263158,35.99,-41.56,-131.98,-0.65,0.43,0.6,0.99,1.0
6:7:27:20:263285,35.75,-41.5,-131.99,-0.66,0.44,0.62,1.01,1.0
6:7:27:21:263653,34.64,-40.92,-131.4,-0.64,0.41,0.63,0.99,0.99
6:7:27:21:263764,34.42,-40.42,-131.01,-0.65,0.43,0.64,1.01,1.0
6:7:27:21:263861,34.43,-40.46,-131.06,-0.65,0.44,0.64,1.01,1.0
6:7:27:21:263957,34.03,-40.37,-130.99,-0.64,0.42,0.63,0.99,1.01
6:7:27:21:264053,33.9,-40.36,-131.16,-0.63,0.42,0.63,0.99,1.0
6:7:27:21:264149,33.81,-40.53,-131.6,-0.66,0.43,0.64,1.01,1.0
6:7:27:21:264261,33.31,-40.57,-131.84,-0.64,0.41,0.63,0.99,1.0
6:7:27:22:264660,33.59,-40.56,-132.14,-0.64,0.41,0.64,0.99,1.0
6:7:27:22:264741,33.36,-40.73,-131.84,-0.65,0.42,0.63,1.0,0.99
6:7:27:22:264853,33.63,-40.75,-131.69,-0.66,0.46,0.64,1.03,1.01
6:7:27:22:264948,32.91,-40.21,-131.55,-0.62,0.4,0.63,0.97,1.0
6:7:27:22:265061,33.01,-40.52,-132.11,-0.66,0.4,0.65,1.01,1.0
6:7:27:22:265157,33.31,-40.87,-132.46,-0.67,0.4,0.66,1.02,1.0
6:7:27:22:265269,33.36,-41.2,-132.18,-0.64,0.4,0.64,1.0,1.01
6:7:27:23:265653,32.84,-40.57,-131.36,-0.64,0.41,0.65,0.99,1.0
6:7:27:23:265765,32.57,-40.59,-131.35,-0.65,0.39,0.64,0.99,0.99
6:7:27:23:265860,32.73,-40.99,-131.39,-0.66,0.4,0.64,1.0,1.0
6:7:27:23:265972,33.16,-41.55,-131.53,-0.66,0.42,0.65,1.01,1.0
6:7:27:23:266069,32.98,-41.25,-131.23,-0.65,0.42,0.63,1.0,1.0
6:7:27:23:266164,32.86,-40.81,-131.06,-0.63,0.42,0.65,1.0,1.0
6:7:27:23:266261,32.59,-40.85,-131.53,-0.66,0.4,0.63,1.0,1.0
6:7:27:24:266666,31.85,-40.9,-132.15,-0.65,0.33,0.66,0.98,0.99
6:7:27:24:266746,30.45,-41.0,-131.13,-0.65,0.41,0.64,1.01,0.99
6:7:27:24:266874,29.34,-40.65,-130.0,-0.66,0.33,0.67,1.0,0.99
6:7:27:24:266970,30.05,-41.42,-130.49,-0.69,0.36,0.66,1.02,1.01
6:7:27:24:267067,31.07,-42.54,-130.52,-0.68,0.4,0.65,1.03,1.01
6:7:27:24:267162,30.85,-42.51,-129.37,-0.67,0.38,0.63,1.0,1.01
6:7:27:24:267258,29.72,-42.52,-127.81,-0.69,0.38,0.6,0.99,1.0
6:7:27:25:267669,38.06,-48.82,-137.18,-0.76,0.41,0.6,1.05,1.01
6:7:27:25:267765,38.22,-49.31,-138.3,-0.78,0.39,0.51,1.01,1.02
6:7:27:25:267861,38.47,-49.61,-138.3,-0.77,0.38,0.53,1.01,1.02
6:7:27:25:267956,38.23,-49.39,-137.12,-0.75,0.43,0.54,1.02,1.01
6:7:27:25:268053,37.51,-48.79,-136.05,-0.75,0.4,0.53,1.0,1.01
6:7:27:25:268164,37.36,-48.78,-135.66,-0.74,0.4,0.53,1.0,1.0
6:7:27:25:268245,37.41,-49.1,-135.22,-0.76,0.4,0.55,1.02,1.0
6:7:27:26:268644,33.84,-45.48,-130.58,-0.71,0.36,0.53,0.96,0.99
6:7:27:26:268771,35.26,-46.16,-131.51,-0.67,0.41,0.64,1.02,1.0
6:7:27:26:268884,36.17,-46.76,-133.79,-0.75,0.41,0.56,1.02,1.0
6:7:27:26:268963,37.08,-47.22,-137.06,-0.79,0.35,0.52,1.01,1.02
6:7:27:26:269060,38.25,-47.08,-139.12,-0.74,0.4,0.54,1.0,1.01
6:7:27:26:269156,39.13,-46.22,-140.13,-0.74,0.42,0.54,1.01,1.01
6:7:27:26:269251,41.32,-47.12,-141.24,-0.72,0.49,0.5,1.01,1.01
6:7:27:27:269645,34.36,-41.56,-148.96,-0.67,0.35,0.57,0.95,0.99
6:7:27:27:269741,29.39,-35.96,-148.78,-0.56,0.31,0.53,0.83,0.93
6:7:27:27:269852,19.75,-29.79,-149.64,-0.61,0.37,0.92,1.16,0.98
6:7:27:27:269965,25.23,-27.05,-157.59,-0.53,0.41,0.95,1.17,1.05
6:7:27:27:270061,28.17,-22.75,-158.21,-0.4,0.4,0.81,0.99,1.11
6:7:27:27:270188,20.33,-16.3,-153.09,-0.34,0.25,0.83,0.93,1.03
6:7:27:27:270253,12.99,-13.4,-145.16,-0.32,0.15,1.07,1.12,1.01
6:7:27:28:270651,2.58,6.21,-134.69,0.06,0.03,0.95,0.95,1.0
6:7:27:28:270746,-0.31,5.89,-132.83,0.11,-0.02,0.94,0.95,1.01
6:7:27:28:270843,-2.3,6.32,-131.6,0.14,-0.1,0.98,0.99,0.96
6:7:27:28:270970,-2.9,6.66,-130.29,0.07,-0.01,0.97,0.97,0.97
6:7:27:28:271068,-3.93,6.8,-129.31,0.09,-0.05,0.98,0.99,0.99
6:7:27:28:271162,-5.42,7.83,-127.96,0.13,-0.11,0.95,0.97,0.98
6:7:27:28:271259,-5.43,7.98,-126.68,0.16,-0.1,0.97,0.99,0.98
6:7:27:29:271653,-3.25,5.73,-122.88,0.1,-0.05,0.98,0.99,0.98
6:7:27:29:271749,-3.21,5.56,-122.18,0.09,-0.05,0.97,0.98,0.99
6:7:27:29:271844,-2.89,5.62,-121.85,0.1,-0.05,0.97,0.97,0.98
6:7:27:29:271956,-2.42,5.36,-121.66,0.08,-0.03,0.98,0.99,0.98
6:7:27:29:272052,-2.07,4.91,-121.4,0.06,-0.04,0.97,0.97,0.98
6:7:27:29:272165,-1.72,4.81,-120.88,0.07,-0.02,0.97,0.97,0.98
6:7:27:29:272261,-1.58,4.77,-120.23,0.08,-0.01,0.98,0.99,0.98
6:7:27:30:272660,-1.99,4.66,-119.14,0.07,-0.03,0.98,0.98,0.98
6:7:27:30:272756,-2.33,4.71,-119.13,0.08,-0.05,0.97,0.97,0.98
6:7:27:30:272853,-2.26,4.77,-119.12,0.08,-0.04,0.97,0.97,0.98
6:7:27:30:272965,-2.1,4.57,-119.08,0.07,-0.04,0.98,0.98,0.98
6:7:27:30:273060,-2.14,4.42,-119.01,0.07,-0.04,0.98,0.98,0.98
6:7:27:30:273157,-2.13,4.53,-118.92,0.07,-0.04,0.97,0.97,0.98
6:7:27:30:273267,-1.98,4.45,-118.93,0.07,-0.04,0.98,0.98,0.98
6:7:27:31:273657,-1.67,4.32,-118.7,0.08,-0.03,0.98,0.98,0.98
6:7:27:31:273754,-1.48,4.05,-118.6,0.06,-0.03,0.98,0.98,0.98
6:7:27:31:273849,-1.4,3.95,-118.48,0.07,-0.03,0.98,0.99,0.98
6:7:27:31:273945,-1.37,3.99,-118.36,0.07,-0.03,0.97,0.97,0.98
6:7:27:31:274041,-1.33,4.14,-118.3,0.08,-0.02,0.98,0.98,0.98
6:7:27:31:274152,-1.3,4.21,-118.34,0.07,-0.02,0.97,0.97,0.98
6:7:27:31:274265,-1.17,4.05,-118.52,0.07,-0.03,0.97,0.97,0.97
6:7:27:32:274642,-1.04,3.21,-118.45,0.06,-0.02,0.97,0.97,0.97
6:7:27:32:274754,-0.88,3.1,-118.48,0.05,-0.02,0.98,0.98,0.97
6:7:27:32:274866,-0.69,2.82,-118.46,0.04,-0.02,0.98,0.98,0.98
6:7:27:32:274962,-0.66,2.66,-118.29,0.04,-0.02,0.98,0.98,0.98
6:7:27:32:275057,-0.81,2.66,-118.18,0.06,-0.02,0.98,0.98,0.98
6:7:27:32:275154,-0.87,2.76,-118.32,0.06,-0.02,0.97,0.97,0.98
6:7:27:32:275265,-0.78,2.67,-118.61,0.05,-0.03,0.98,0.98,0.98
6:7:27:33:275654,3.25,3.63,-120.51,0.09,0.01,0.95,0.96,0.97
6:7:27:33:275783,4.32,3.21,-121.41,0.09,0.03,0.95,0.96,0.97
6:7:27:33:275862,5.57,2.92,-122.83,0.11,0.03,0.97,0.98,0.96
6:7:27:33:275958,6.48,3.29,-124.65,0.12,0.03,0.98,0.99,0.98
6:7:27:33:276054,6.58,3.04,-126.83,0.08,0.04,1.05,1.05,1.01
6:7:27:33:276150,6.23,1.0,-129.33,-0.06,0.16,1.15,1.16,1.07
6:7:27:33:276246,4.66,-2.85,-130.96,-0.11,0.14,1.13,1.14,1.12
6:7:27:34:276653,2.12,-4.01,-124.57,-0.09,-0.08,0.92,0.93,1.08
6:7:27:34:276764,2.05,-3.32,-123.0,-0.11,-0.08,1.02,1.03,1.03
6:7:27:34:276861,0.76,-2.35,-124.79,-0.2,0.05,1.19,1.21,1.06
6:7:27:34:276957,-2.99,1.26,-127.05,0.05,0.06,1.2,1.2,1.15
6:7:27:34:277069,-2.07,2.69,-128.04,0.05,0.14,0.79,0.81,1.07
6:7:27:34:277149,-1.84,2.28,-126.36,-0.01,0.07,0.78,0.79,0.93
6:7:27:34:277245,0.13,1.6,-127.36,0.04,-0.03,0.81,0.81,0.8
6:7:27:35:277666,1.32,-5.86,-123.85,-0.2,0.19,0.79,0.84,0.81
6:7:27:35:277761,-1.82,-5.42,-117.9,-0.13,0.12,0.7,0.72,0.79
6:7:27:35:277857,0.3,-2.53,-114.92,-0.07,-0.09,0.83,0.83,0.8
6:7:27:35:277953,5.88,-0.53,-115.55,0.03,-0.05,0.99,0.99,0.85
6:7:27:35:278049,2.61,-6.18,-117.23,-0.26,0.14,1.14,1.18,1.0
6:7:27:35:278146,-1.44,-4.68,-119.71,-0.09,0.16,1.32,1.33,1.17
6:7:27:35:278257,1.49,-3.63,-120.61,-0.04,0.35,0.77,0.85,1.12
6:7:27:36:278654,0.52,-7.95,-127.2,-0.21,-0.04,1.13,1.15,1.11
6:7:27:36:278767,-0.59,-8.67,-125.72,-0.17,0.07,1.2,1.22,1.07
6:7:27:36:278848,3.74,-9.19,-122.31,-0.21,0.18,0.98,1.02,1.13
6:7:27:36:279077,4.98,-11.13,-117.1,-0.15,0.16,0.72,0.75,1.0
6:7:27:36:279093,-0.14,-10.59,-112.57,-0.02,-0.01,0.74,0.74,0.84
6:7:27:36:279173,-0.04,-10.59,-111.92,-0.18,0.09,1.12,1.13,0.88
6:7:27:36:279270,1.72,-10.4,-116.23,-0.18,0.04,1.11,1.12,1.0
6:7:27:37:279659,8.22,-14.62,-132.56,-0.12,0.09,0.79,0.8,1.02
6:7:27:37:279755,17.52,-29.19,-141.07,-0.64,0.18,0.72,0.98,0.97
6:7:27:37:279867,26.35,-42.23,-145.69,-0.78,0.29,0.66,1.06,0.95
6:7:27:37:279963,40.78,-49.59,-152.2,-1.02,0.66,0.45,1.3,1.11
6:7:27:37:280075,39.98,-54.91,-147.46,-0.95,0.51,0.39,1.15,1.17
6:7:27:37:280155,28.18,-57.53,-139.04,-0.64,0.25,0.33,0.76,1.07
6:7:27:37:280268,16.15,-55.95,-130.97,-0.63,0.27,0.37,0.78,0.9
6:7:27:38:280667,9.08,-52.39,-140.04,-0.61,0.13,0.47,0.78,0.77
6:7:27:38:280747,14.28,-48.35,-145.58,-0.64,-0.01,0.44,0.78,0.78
6:7:27:38:280874,13.7,-45.98,-147.43,-0.7,0.1,0.64,0.96,0.84
6:7:27:38:280954,16.1,-43.33,-149.7,-0.94,0.32,0.73,1.24,0.99
6:7:27:38:281051,18.94,-36.86,-148.12,-0.76,0.47,0.81,1.21,1.13
6:7:27:38:281148,23.64,-33.06,-147.31,-0.58,0.38,0.79,1.05,1.16
6:7:27:38:281259,26.32,-30.38,-144.02,-0.4,0.3,0.63,0.8,1.02
6:7:27:39:281656,20.72,-30.07,-139.73,-0.42,0.49,0.79,1.02,0.96
6:7:27:39:281753,24.73,-30.45,-143.97,-0.43,0.46,0.67,0.92,0.91
6:7:27:39:281864,26.88,-32.43,-147.72,-0.35,0.12,0.43,0.57,0.84
6:7:27:39:281976,27.17,-36.51,-151.96,-0.59,0.31,0.74,0.99,0.83
6:7:27:39:282072,24.8,-38.78,-152.57,-0.95,0.36,0.89,1.35,0.97
6:7:27:39:282168,24.53,-38.52,-148.18,-0.86,0.49,0.81,1.28,1.21
6:7:27:39:282281,25.5,-39.31,-142.88,-0.77,0.38,0.55,1.03,1.22
6:7:27:40:282648,27.11,-30.17,-131.89,-0.53,0.5,0.76,1.05,1.12
6:7:27:40:282760,32.02,-25.58,-140.67,-0.5,0.75,0.91,1.28,1.12
6:7:27:40:282872,33.62,-25.24,-145.36,-0.44,0.67,0.74,1.09,1.14
6:7:27:40:283016,36.26,-25.33,-148.26,-0.3,0.27,0.45,0.61,0.99
6:7:27:40:283080,33.97,-26.54,-149.23,-0.46,0.27,0.66,0.85,0.85
6:7:27:40:283160,32.32,-29.15,-150.53,-0.71,0.31,0.93,1.21,0.89
6:7:27:40:283272,31.38,-33.12,-145.71,-0.87,0.81,1.02,1.57,1.21
6:7:27:41:283656,12.72,-32.73,-118.29,-0.49,0.27,0.9,1.06,1.28
6:7:29:6:368704,57.57,-57.41,-150.28,-0.86,0.44,0.3,1.01,1.0
6:7:29:6:368817,55.62,-56.66,-148.7,-0.84,0.46,0.31,1.0,1.0
6:7:29:6:368912,54.21,-56.0,-147.75,-0.82,0.46,0.33,1.0,1.0
6:7:29:6:369024,53.94,-55.32,-147.76,-0.81,0.44,0.34,0.99,1.0
6:7:29:6:369120,54.33,-55.11,-148.22,-0.83,0.47,0.35,1.01,1.0
6:7:29:6:369216,54.56,-54.63,-148.54,-0.81,0.46,0.34,0.99,1.0
6:7:29:7:369712,71.77,-51.98,-161.63,-0.82,0.63,0.21,1.05,1.02
6:7:29:7:369809,71.02,-50.22,-160.4,-0.79,0.62,0.26,1.04,1.03
6:7:29:7:369920,67.09,-49.2,-155.56,-0.83,0.68,0.25,1.1,1.06
6:7:29:7:370016,63.87,-48.43,-151.37,-0.78,0.6,0.22,1.01,1.05
6:7:29:7:370113,62.58,-47.37,-149.07,-0.79,0.5,0.31,0.99,1.03
6:7:29:7:370224,60.71,-49.18,-145.77,-0.83,0.52,0.31,1.03,1.01
6:7:29:8:370624,57.66,-51.1,-143.49,-0.81,0.6,0.33,1.05,1.02
6:7:29:8:370720,55.21,-51.21,-143.19,-0.78,0.47,0.37,0.98,1.02
6:7:29:8:370816,53.22,-51.47,-143.25,-0.75,0.55,0.35,1.0,1.01
6:7:29:8:370896,54.2,-50.42,-145.19,-0.7,0.53,0.37,0.95,0.98
6:7:29:8:371008,56.44,-50.73,-147.61,-0.75,0.6,0.42,1.05,1.0
6:7:29:8:371104,60.13,-46.91,-151.62,-0.72,0.65,0.5,1.09,1.03
6:7:29:8:371200,59.5,-46.11,-151.55,-0.67,0.59,0.41,0.98,1.04
6:7:29:9:371712,56.71,-51.24,-147.27,-0.84,0.57,0.33,1.07,1.05
6:7:29:9:371807,55.83,-51.12,-145.2,-0.75,0.51,0.37,0.98,1.01
6:7:29:9:371919,53.71,-51.53,-143.74,-0.8,0.49,0.37,1.01,1.02
6:7:29:9:372032,53.4,-51.59,-143.45,-0.8,0.5,0.35,1.0,1.0
6:7:29:9:372127,54.68,-51.23,-144.69,-0.76,0.46,0.37,0.96,0.99
6:7:29:9:372223,57.31,-52.28,-146.54,-0.8,0.51,0.35,1.01,0.99
6:7:29:10:372623,69.94,-53.49,-155.63,-0.82,0.54,0.23,1.01,1.0
6:7:29:10:372719,70.83,-53.54,-156.89,-0.8,0.58,0.23,1.01,1.01
6:7:29:10:372816,71.44,-53.52,-158.02,-0.79,0.58,0.23,1.0,1.01
6:7:29:10:372911,70.68,-53.96,-157.79,-0.83,0.56,0.2,1.02,1.01
6:7:29:10:373024,70.62,-53.82,-158.1,-0.81,0.56,0.21,1.01,1.01
6:7:29:10:373119,70.41,-53.6,-157.88,-0.81,0.56,0.21,1.01,1.01
6:7:29:10:373216,70.97,-52.5,-158.46,-0.8,0.58,0.2,1.01,1.01
6:7:29:11:373710,64.76,-53.02,-152.46,-0.81,0.55,0.25,1.01,1.01
6:7:29:11:373822,65.81,-53.42,-153.05,-0.8,0.54,0.25,1.0,1.01
6:7:29:11:373919,66.92,-53.97,-153.56,-0.81,0.55,0.24,1.01,1.01
6:7:29:11:374030,67.12,-54.78,-153.51,-0.84,0.52,0.24,1.01,1.01
6:7:29:11:374126,67.14,-55.36,-152.92,-0.84,0.54,0.24,1.02,1.02
6:7:29:11:374221,67.13,-55.4,-152.24,-0.83,0.54,0.24,1.02,1.02
6:7:29:12:374626,68.4,-57.12,-154.79,-0.85,0.51,0.21,1.01,1.02
6:7:29:12:374707,68.32,-57.4,-155.67,-0.85,0.49,0.21,1.0,1.01
6:7:29:12:374819,68.67,-57.56,-156.69,-0.86,0.51,0.2,1.02,1.01
6:7:29:12:374915,68.39,-57.57,-157.02,-0.85,0.51,0.21,1.01,1.01
6:7:29:12:375011,68.04,-57.43,-157.12,-0.85,0.51,0.21,1.01,1.02
6:7:29:12:375122,67.75,-57.32,-157.23,-0.85,0.5,0.21,1.01,1.01
6:7:29:12:375218,67.55,-57.24,-157.26,-0.85,0.51,0.22,1.01,1.01
6:7:29:13:375715,65.5,-56.87,-154.93,-0.85,0.5,0.24,1.01,1.01
6:7:29:13:375811,65.23,-56.88,-154.52,-0.85,0.5,0.23,1.01,1.01
6:7:29:13:375906,65.22,-56.92,-154.34,-0.85,0.5,0.23,1.02,1.01
6:7:29:13:376018,65.04,-56.94,-154.05,-0.84,0.49,0.23,1.0,1.01
6:7:29:13:376130,64.88,-56.88,-153.75,-0.85,0.5,0.24,1.01,1.01
6:7:29:13:376226,64.78,-56.84,-153.55,-0.85,0.5,0.24,1.01,1.01
6:7:29:14:376602,66.25,-56.78,-155.18,-0.84,0.5,0.24,1.01,1.01
6:7:29:14:376714,66.94,-56.87,-156.15,-0.85,0.5,0.23,1.01,1.01
6:7:29:14:376810,67.36,-56.93,-156.93,-0.85,0.5,0.22,1.01,1.01
6:7:29:14:376921,67.68,-57.03,-157.7,-0.85,0.51,0.22,1.01,1.01
6:7:29:14:377017,67.55,-57.03,-157.93,-0.84,0.51,0.22,1.01,1.01
6:7:29:14:377114,67.29,-56.92,-157.92,-0.85,0.51,0.22,1.01,1.01
6:7:29:14:377209,66.97,-56.87,-157.86,-0.85,0.51,0.22,1.01,1.01
6:7:29:15:377721,66.58,-56.28,-157.46,-0.84,0.51,0.22,1.01,1.01
6:7:29:15:377817,66.72,-55.94,-157.71,-0.84,0.51,0.23,1.01,1.01
6:7:29:15:377929,66.63,-55.56,-157.78,-0.84,0.52,0.23,1.01,1.01
6:7:29:15:378009,66.61,-55.15,-157.89,-0.82,0.53,0.24,1.01,1.01
6:7:29:15:378121,66.71,-54.61,-157.98,-0.81,0.55,0.25,1.01,1.01
6:7:29:15:378217,66.74,-54.49,-157.88,-0.82,0.55,0.25,1.02,1.01
6:7:29:16:378629,69.57,-54.84,-156.68,-0.81,0.55,0.17,0.99,1.01
6:7:29:16:378725,73.76,-55.83,-157.6,-0.91,0.44,0.2,1.03,1.01
6:7:29:16:378837,73.47,-58.33,-153.76,-0.97,0.4,0.15,1.06,1.03
6:7:29:16:378918,69.4,-59.63,-146.07,-0.89,0.48,0.15,1.02,1.04
6:7:29:16:379013,64.08,-58.11,-137.65,-1.01,0.34,0.23,1.09,1.06
6:7:29:16:379125,54.39,-55.04,-126.35,-0.88,0.39,0.29,1.01,1.04
6:7:29:16:379222,42.39,-52.4,-113.46,-0.81,0.39,0.37,0.97,1.02
6:7:29:17:379717,-2.43,-36.36,-54.92,-0.48,0.14,0.81,0.95,0.98
6:7:29:17:379814,-8.69,-31.11,-47.92,-0.26,0.21,0.86,0.92,0.95
6:7:29:17:379925,-6.08,-25.58,-60.78,-0.11,0.02,0.92,0.92,0.93
6:7:29:17:380037,-1.54,-19.2,-75.62,-0.03,-0.06,0.96,0.96,0.93
6:7:29:17:380118,-1.88,-13.43,-72.53,-0.05,0.01,1.04,1.04,0.97
6:7:29:17:380213,-1.38,-11.15,-67.5,-0.05,0.12,1.07,1.08,1.03
6:7:29:18:380603,1.18,-2.55,-88.97,-0.06,0.0,0.96,0.96,1.03
6:7:29:18:380698,2.99,-0.6,-89.13,-0.01,0.08,0.85,0.85,0.97
6:7:29:18:380811,3.86,-4.3,-92.4,-0.04,0.05,1.06,1.06,0.96
6:7:29:18:380906,4.91,-8.5,-94.05,-0.08,0.08,0.97,0.97,0.96
6:7:29:18:381002,4.82,-9.79,-99.29,-0.05,0.09,1.01,1.02,1.02
6:7:29:18:381113,3.59,-9.92,-106.12,-0.02,0.1,1.11,1.11,1.03
6:7:29:18:381210,2.19,-9.04,-111.47,-0.03,0.05,0.88,0.88,1.0
6:7:29:19:381615,6.2,-7.77,-125.77,-0.06,-0.01,1.15,1.16,1.05
6:7:29:19:381727,5.8,-9.97,-124.53,-0.14,-0.01,1.05,1.06,1.03
6:7:29:19:381822,4.44,-9.44,-120.98,-0.15,-0.01,1.06,1.07,1.1
6:7:29:19:381919,1.7,-4.7,-121.22,-0.1,0.13,1.06,1.07,1.07
6:7:29:19:382014,-5.79,4.46,-124.72,0.04,0.03,0.89,0.89,1.01
6:7:29:19:382111,-6.61,8.08,-126.59,0.02,0.07,0.77,0.78,0.91
6:7:29:19:382206,-3.68,8.82,-128.57,-0.02,0.03,0.88,0.88,0.85
6:7:29:20:382613,11.6,-2.89,-122.97,-0.19,0.28,0.93,0.99,0.88
6:7:29:20:382705,-3.15,9.61,-131.01,0.23,-0.06,0.9,0.93,0.93
6:7:29:20:382818,-3.37,7.02,-130.31,-0.05,0.17,0.78,0.8,0.91
6:7:29:20:382928,-4.51,11.4,-123.17,0.13,-0.02,0.83,0.85,0.86
6:7:29:20:382994,3.71,4.94,-113.39,-0.12,0.12,0.95,0.96,0.87
6:7:29:20:383121,8.33,-2.14,-115.69,-0.09,-0.03,1.05,1.05,0.95
6:7:29:20:383233,13.32,-9.35,-118.64,-0.13,0.03,1.1,1.11,1.04
6:7:29:21:383697,0.34,8.39,-113.25,-0.03,0.04,0.92,0.92,1.03
6:7:29:21:383808,4.83,3.55,-116.07,-0.1,0.06,0.99,0.99,1.01
6:7:29:21:383904,7.46,-2.08,-125.31,-0.12,0.02,1.14,1.15,1.02
6:7:29:21:384000,8.04,-5.5,-130.14,0.01,0.05,1.08,1.08,1.07
6:7:29:21:384096,7.63,-7.71,-127.96,0.01,0.22,0.97,1.0,1.08
6:7:29:21:384208,5.34,-5.87,-128.27,0.03,0.2,0.95,0.97,1.02
6:7:29:22:384724,-7.08,-3.77,-134.58,-0.14,-0.06,0.99,1.0,0.99
6:7:29:22:384821,-8.85,-6.28,-132.71,-0.13,-0.04,0.85,0.86,0.94
6:7:29:22:384900,-13.59,-5.04,-130.65,-0.14,-0.14,0.92,0.94,0.94
6:7:29:22:384996,-16.67,-6.27,-124.93,-0.13,-0.27,0.99,1.03,0.95
6:7:29:22:385093,-16.86,-8.33,-119.18,-0.21,-0.01,0.93,0.96,0.98
6:7:29:22:385204,-11.01,-8.58,-130.26,-0.21,-0.15,1.08,1.11,1.03
6:7:29:23:385723,30.19,-13.75,-147.03,-0.34,0.65,0.86,1.13,1.07
6:7:29:23:385818,45.5,-10.61,-145.72,-0.24,0.67,0.73,1.02,1.09
6:7:29:23:385915,61.62,-7.03,-143.45,0.03,0.92,0.44,1.02,1.06
6:7:29:23:386026,69.16,-7.75,-142.82,-0.18,0.79,0.28,0.86,0.97
6:7:29:23:386122,70.17,-9.69,-139.43,-0.17,0.9,0.17,0.94,0.94
6:7:29:23:386202,72.35,-10.52,-139.36,-0.25,0.99,0.21,1.04,0.95
6:7:29:24:386602,77.31,-9.85,-143.76,-0.22,0.9,0.23,0.95,0.98
6:7:29:24:386714,83.98,-8.14,-148.58,-0.2,0.93,0.07,0.95,0.98
6:7:29:24:386827,83.65,-9.32,-148.62,-0.26,0.93,0.07,0.97,0.96
6:7:29:24:386906,82.86,-12.76,-147.46,-0.21,0.96,0.03,0.99,0.97
6:7:29:24:387018,82.46,-13.92,-149.88,-0.18,0.86,0.1,0.88,0.95
6:7:29:24:387114,83.54,-16.2,-152.7,-0.37,0.95,-0.01,1.02,0.96
6:7:29:24:387210,82.58,-17.91,-156.12,-0.29,1.06,0.01,1.1,1.0
6:7:29:25:387622,86.3,-18.16,-161.68,-0.33,0.84,-0.07,0.91,1.01
6:7:29:25:387719,86.32,-19.59,-161.67,-0.35,1.02,0.07,1.08,1.03
6:7:29:25:387815,87.83,-20.72,-164.96,-0.43,0.85,-0.17,0.96,0.98
6:7:29:25:387911,86.31,-25.02,-165.35,-0.42,1.15,0.03,1.23,1.09
6:7:29:25:388008,81.65,-25.81,-163.55,-0.53,0.9,0.27,1.07,1.09
6:7:29:25:388102,74.56,-27.8,-158.24,-0.47,0.83,0.22,0.98,1.1
6:7:29:25:388215,71.58,-29.8,-155.15,-0.34,0.86,0.06,0.93,1.0
6:7:29:26:388610,81.94,-35.54,-157.91,-0.42,0.89,0.15,1.0,0.97
6:7:29:26:388704,91.21,-30.81,-159.86,-0.43,0.72,-0.06,0.84,0.92
6:7:29:26:388800,94.95,-32.54,-164.4,-0.55,0.94,-0.16,1.11,0.98
6:7:29:26:388895,101.41,-30.94,-169.99,-0.67,0.81,-0.11,1.06,1.0
6:7:29:26:389007,105.98,-29.12,-173.9,-0.43,0.8,-0.24,0.94,1.03
6:7:29:26:389103,106.5,-28.31,-174.43,-0.23,0.96,-0.31,1.04,1.01
6:7:29:26:389215,103.72,-28.66,-173.6,-0.46,0.83,-0.13,0.96,0.98
6:7:29:27:389620,107.01,-27.99,176.7,-0.5,0.94,-0.35,1.12,1.04
6:7:29:27:389701,102.39,-31.04,174.79,-0.66,0.83,-0.12,1.06,1.05
6:7:29:27:389796,95.31,-34.6,-179.7,-0.52,0.91,0.08,1.05,1.08
6:7:29:27:389925,91.0,-35.47,-175.47,-0.54,0.9,0.01,1.05,1.06
6:7:29:27:390004,95.57,-31.54,-178.18,-0.45,0.79,-0.07,0.91,1.01
6:7:29:27:390100,96.58,-33.93,178.16,-0.82,0.86,0.07,1.19,1.05
6:7:29:27:390211,99.29,-33.42,-178.63,-0.83,0.78,-0.23,1.16,1.09
6:7:29:28:390611,107.23,-30.75,179.59,-0.52,0.85,-0.29,1.04,1.13
6:7:29:28:390708,103.06,-33.16,-178.98,-0.62,0.86,-0.18,1.07,1.09
6:7:29:28:390805,100.71,-33.89,-177.74,-0.66,0.87,-0.14,1.1,1.07
6:7:29:28:390900,100.32,-33.28,-176.83,-0.5,0.77,-0.12,0.93,1.03
6:7:29:28:391012,101.65,-32.65,-176.7,-0.45,0.8,-0.22,0.94,0.99
6:7:29:28:391108,101.14,-33.29,-177.0,-0.6,0.91,-0.13,1.1,0.99
6:7:29:28:391204,94.29,-35.35,-174.68,-0.6,0.77,0.01,0.98,1.01
6:7:29:29:391616,94.95,-33.18,-176.45,-0.54,0.71,0.03,0.89,0.99
6:7:29:29:391712,94.65,-34.14,-178.57,-0.6,1.12,-0.09,1.27,1.05
6:7:29:29:391809,89.42,-41.05,-175.37,-0.69,0.76,-0.07,1.03,1.07
6:7:29:29:391905,83.39,-49.96,-173.94,-0.86,0.69,0.1,1.1,1.13
6:7:29:29:392000,82.67,-53.81,-176.15,-0.77,0.6,0.09,0.98,1.04
6:7:29:29:392097,88.0,-53.03,-176.87,-0.81,0.68,-0.12,1.06,1.05
6:7:29:29:392207,91.97,-48.77,-177.61,-0.81,0.7,-0.16,1.08,1.04
6:7:29:30:392608,102.31,-31.13,-174.74,-0.49,0.85,-0.1,0.99,1.04
6:7:29:30:392720,102.33,-32.14,-173.42,-0.55,0.92,-0.25,1.1,1.06
6:7:29:30:392817,102.63,-34.05,-173.6,-0.6,0.87,-0.26,1.09,1.06
6:7:29:30:392913,101.08,-35.07,-172.66,-0.42,0.8,-0.09,0.9,1.03
6:7:29:30:393008,103.32,-34.33,-177.57,-0.45,0.81,-0.08,0.93,0.97
6:7:29:30:393104,103.06,-34.06,179.06,-0.48,0.98,-0.14,1.1,0.98
6:7:29:30:393200,98.33,-36.54,179.59,-0.71,0.8,-0.08,1.07,1.03
6:7:29:31:393607,109.73,-32.26,-178.61,-0.55,0.84,-0.65,1.2,1.12
6:7:29:31:393719,109.79,-32.68,178.8,-0.56,0.79,-0.26,1.0,1.09
6:7:29:31:393815,105.24,-33.78,179.67,-0.54,0.86,-0.1,1.02,1.07
6:7:29:31:393910,99.42,-34.43,-179.37,-0.54,0.85,0.13,1.01,1.01
6:7:29:31:394007,96.17,-34.94,-178.06,-0.56,0.91,-0.17,1.08,1.04
6:7:29:31:394102,93.62,-35.24,-176.95,-0.62,0.86,-0.06,1.06,1.05
6:7:29:31:394199,89.09,-36.44,-175.72,-0.55,0.79,0.12,0.97,1.04
6:7:29:32:394625,87.18,-43.69,-179.17,-0.66,0.84,-0.33,1.12,1.05
6:7:29:32:394722,86.2,-45.4,178.32,-0.82,0.69,0.03,1.07,1.05
6:7:29:32:394818,88.18,-43.57,177.02,-0.66,0.76,0.06,1.0,1.07
6:7:29:32:394913,87.58,-44.94,178.34,-0.81,0.77,-0.03,1.12,1.06
6:7:29:32:395010,89.19,-43.98,179.78,-0.68,0.77,-0.13,1.04,1.05
6:7:29:32:395106,91.13,-42.37,-179.04,-0.68,0.74,-0.08,1.01,1.05
6:7:29:32:395201,91.75,-41.42,-178.8,-0.63,0.75,-0.0,0.98,1.01
6:7:29:33:395622,82.6,-41.59,-170.95,-0.62,0.75,0.1,0.98,0.99
6:7:29:33:395702,82.58,-41.86,-171.73,-0.72,0.91,-0.02,1.16,1.04
6:7:29:33:395798,80.29,-42.68,-169.64,-0.74,0.73,0.09,1.04,1.06
6:7:29:33:395895,81.04,-42.5,-168.92,-0.6,0.74,0.07,0.96,1.05
6:7:29:33:395990,77.92,-44.75,-169.83,-0.68,0.61,0.18,0.93,0.98
6:7:29:33:396118,82.69,-44.29,-173.52,-0.68,0.74,-0.12,1.01,0.97
6:7:29:33:396215,84.95,-46.1,-175.59,-0.7,0.58,-0.07,0.91,0.95
6:7:29:34:396612,93.76,-45.25,-175.67,-0.69,0.7,-0.14,0.99,0.97
6:7:29:34:396709,94.95,-45.21,-175.49,-0.67,0.74,-0.06,0.99,0.97
6:7:29:34:396804,93.61,-45.2,-175.0,-0.7,0.69,0.1,0.99,0.99
6:7:29:34:396900,90.38,-45.56,-173.03,-0.72,0.64,0.21,0.99,0.99
6:7:29:34:397012,89.81,-45.63,-172.6,-0.75,0.74,-0.03,1.05,1.01
6:7:29:34:397109,93.44,-43.74,-175.46,-0.69,0.74,-0.13,1.02,1.02
6:7:29:34:397205,94.61,-43.14,-176.47,-0.69,0.78,-0.07,1.04,1.04
6:7:29:35:397625,81.59,-48.12,-173.81,-0.78,0.68,-0.1,1.04,1.03
6:7:29:35:397705,85.85,-48.07,-175.91,-0.76,0.61,0.04,0.97,1.02
6:7:29:35:397801,87.03,-49.15,-175.69,-0.8,0.66,0.04,1.03,1.01
6:7:29:35:397896,87.3,-50.16,-174.65,-0.83,0.73,-0.03,1.1,1.04
6:7:29:35:397992,87.73,-49.7,-173.19,-0.81,0.67,-0.09,1.06,1.06
6:7:29:35:398104,90.78,-47.74,-172.79,-0.71,0.65,-0.09,0.97,1.04
6:7:29:35:398201,91.58,-46.97,-173.36,-0.69,0.65,0.18,0.96,0.99
6:7:29:36:398616,80.13,-49.29,-166.38,-0.75,0.65,0.29,1.03,0.99
6:7:29:36:398728,74.97,-51.56,-166.36,-0.85,0.64,0.19,1.08,1.02
6:7:29:36:398808,77.14,-51.26,-169.15,-0.82,1.04,-0.2,1.34,1.15
6:7:29:36:398905,79.54,-52.47,-171.93,-0.76,0.61,-0.35,1.04,1.15
6:7:29:36:399017,83.84,-52.55,-175.31,-0.81,0.54,-0.11,0.98,1.12
6:7:29:36:399113,86.21,-52.38,-173.54,-0.84,0.67,-0.2,1.09,1.04
6:7:29:36:399208,90.72,-49.07,-172.88,-0.73,0.6,-0.14,0.96,1.01
6:7:29:37:399623,87.24,-46.64,-167.15,-0.75,0.68,-0.01,1.01,1.02
6:7:29:37:399704,90.3,-45.75,-168.07,-0.73,0.64,0.04,0.97,0.98
6:7:29:37:399800,92.39,-45.47,-167.0,-0.71,0.76,-0.07,1.04,1.01
6:7:29:37:399911,92.13,-45.48,-168.07,-0.7,0.75,-0.04,1.03,1.01
6:7:29:37:400007,90.94,-46.79,-171.1,-0.77,0.74,0.02,1.07,1.04
6:7:29:37:400104,88.44,-47.68,-172.4,-0.75,0.72,-0.09,1.05,1.05
6:7:29:37:400199,88.4,-47.67,-174.46,-0.82,0.69,-0.12,1.08,1.06
6:7:29:38:400627,84.8,-48.96,178.63,-0.85,0.64,0.16,1.07,1.06
6:7:29:38:400708,79.77,-50.5,-175.85,-0.86,0.6,0.16,1.06,1.07
6:7:29:38:400804,77.13,-51.42,-171.7,-0.8,0.59,0.13,1.0,1.04
6:7:29:38:400916,77.13,-52.26,-170.72,-0.86,0.56,0.14,1.03,1.03
6:7:29:38:401012,76.55,-52.7,-170.32,-0.79,0.57,0.18,1.0,1.01
6:7:29:38:401107,74.34,-53.3,-169.05,-0.82,0.57,0.13,1.01,1.01
6:7:29:38:401204,74.2,-52.7,-170.28,-0.78,0.65,0.1,1.02,1.01
6:7:29:39:401611,86.04,-48.17,179.72,-0.73,0.76,-0.03,1.06,1.03
6:7:29:39:401692,84.12,-49.75,-179.95,-0.94,0.57,0.18,1.12,1.07
6:7:29:39:401803,78.83,-50.82,-174.29,-0.76,0.68,0.08,1.02,1.07
6:7:29:39:401915,78.63,-49.67,-173.73,-0.76,0.61,0.07,0.98,1.04
6:7:29:39:402011,78.0,-48.95,-173.44,-0.76,0.64,0.11,1.0,1.0
6:7:29:39:402123,78.12,-48.62,-174.4,-0.93,0.75,0.09,1.2,1.06
6:7:29:39:402204,77.36,-45.3,-174.76,-0.66,0.69,0.12,0.97,1.05
6:7:29:40:402609,80.3,-49.61,-177.0,-1.03,0.52,0.26,1.18,1.12
6:7:29:40:402706,72.1,-53.56,-169.7,-0.75,0.59,0.2,0.98,1.04
6:7:29:40:402816,69.55,-59.39,-167.28,-0.84,0.5,0.17,0.99,1.05
6:7:29:40:402913,55.8,-67.34,-154.87,-1.01,0.28,0.17,1.06,1.01
6:7:29:40:403010,41.7,-71.06,-139.55,-0.99,0.22,0.31,1.06,1.04
6:7:29:40:403105,34.19,-66.87,-136.99,-1.03,0.25,0.38,1.13,1.08
6:7:29:40:403217,25.42,-60.62,-135.41,-0.88,0.2,0.17,0.92,1.04
6:7:29:41:403606,34.08,-58.75,-143.67,-0.89,0.25,0.36,0.99,1.01
6:7:41:46:1128672,96.28,-36.46,168.67,-0.63,0.85,-0.11,1.07,1.1
6:7:41:46:1128716,96.74,-35.06,168.07,-0.54,0.82,-0.05,0.98,1.1
6:7:41:46:1128814,98.02,-34.97,167.08,-0.55,0.81,-0.16,0.99,1.01
6:7:41:46:1128926,99.0,-35.23,166.11,-0.57,0.81,-0.11,0.99,0.99
6:7:41:46:1129022,99.62,-36.24,165.6,-0.58,0.81,-0.16,1.01,1.0
6:7:41:46:1129102,99.68,-36.83,165.49,-0.56,0.82,-0.13,1.0,1.0
6:7:41:46:1129212,100.31,-36.46,165.15,-0.58,0.69,-0.26,0.94,0.98
6:7:41:47:1129725,103.01,-39.84,165.25,-0.66,0.75,-0.18,1.02,0.98
6:7:41:47:1129823,102.89,-39.48,165.18,-0.66,0.79,-0.17,1.04,1.0
6:7:41:47:1129919,102.62,-39.4,165.14,-0.65,0.77,-0.15,1.02,1.02
6:7:41:47:1130015,102.34,-39.32,165.19,-0.64,0.75,-0.15,1.0,1.02
6:7:41:47:1130124,102.53,-39.36,164.81,-0.64,0.77,-0.17,1.02,1.01
6:7:41:47:1130221,102.51,-39.17,164.63,-0.64,0.78,-0.16,1.02,1.01
6:7:41:48:1130622,103.13,-39.55,163.73,-0.63,0.76,-0.18,1.01,1.02
6:7:41:48:1130717,102.84,-39.51,163.97,-0.63,0.73,-0.15,0.97,1.0
6:7:41:48:1130814,102.46,-40.15,164.26,-0.66,0.74,-0.17,1.0,0.99
6:7:41:48:1130910,101.91,-40.22,164.83,-0.67,0.77,-0.16,1.03,1.0
6:7:41:48:1131005,100.25,-40.39,166.0,-0.67,0.76,-0.15,1.02,1.02
6:7:41:48:1131102,99.61,-40.59,167.12,-0.67,0.75,-0.11,1.01,1.02
6:7:41:48:1131213,99.44,-41.24,167.2,-0.68,0.73,-0.15,1.01,1.01
6:7:41:49:1131622,97.86,-41.7,167.48,-0.68,0.73,-0.09,1.0,1.0
6:7:41:49:1131716,99.64,-42.31,166.93,-0.68,0.72,-0.12,0.99,1.0
6:7:41:49:1131825,102.57,-42.27,164.92,-0.67,0.77,-0.17,1.03,1.01
6:7:41:49:1131922,105.97,-42.44,162.19,-0.65,0.74,-0.21,1.01,1.01
6:7:41:49:1132020,111.11,-43.14,157.76,-0.75,0.78,-0.28,1.12,1.05
6:7:41:49:1132116,115.24,-42.93,154.36,-0.73,0.68,-0.34,1.05,1.06
6:7:41:49:1132217,114.21,-42.69,155.39,-0.72,0.71,-0.33,1.06,1.08
6:7:41:50:1132627,110.56,-41.88,157.46,-0.7,0.67,-0.29,1.01,1.04
6:7:41:50:1132724,113.54,-40.96,154.89,-0.65,0.66,-0.23,0.95,1.01
6:7:41:50:1132820,114.77,-40.74,154.5,-0.58,0.6,-0.37,0.91,0.96
6:7:41:50:1132916,115.49,-40.15,153.89,-0.65,0.62,-0.42,0.99,0.95
6:7:41:50:1133011,115.37,-41.27,153.17,-0.61,0.78,-0.35,1.05,0.98
6:7:41:50:1133106,113.5,-43.23,154.13,-0.76,0.8,-0.28,1.14,1.06
6:7:41:50:1133203,108.26,-42.39,156.52,-0.66,0.63,-0.35,0.98,1.06
6:7:41:51:1133631,114.57,-40.25,150.63,-0.63,0.77,-0.31,1.04,1.05
6:7:41:51:1133711,114.75,-41.78,153.76,-0.6,0.73,-0.25,0.97,1.0
6:7:41:51:1133824,113.87,-42.26,154.97,-0.72,0.7,-0.25,1.04,1.02
6:7:41:51:1133920,113.51,-41.93,154.62,-0.69,0.65,-0.13,0.96,0.99
6:7:41:51:1134031,111.96,-42.41,155.96,-0.69,0.66,-0.4,1.04,1.01
6:7:41:51:1134127,112.21,-42.51,156.53,-0.73,0.73,-0.29,1.07,1.02
6:7:41:51:1134224,113.88,-42.98,155.82,-0.65,0.67,-0.31,0.99,1.03
6:7:41:52:1134608,115.26,-44.35,155.47,-0.7,0.67,-0.33,1.03,1.03
6:7:41:52:1134720,114.82,-43.73,155.45,-0.7,0.63,-0.33,1.0,1.0
6:7:41:52:1134816,113.69,-44.45,155.03,-0.76,0.64,-0.26,1.03,1.02
6:7:41:52:1134912,113.71,-45.0,155.41,-0.75,0.73,-0.37,1.11,1.05
6:7:41:52:1135008,115.05,-45.25,155.22,-0.71,0.69,-0.28,1.03,1.06
6:7:41:52:1135104,115.78,-45.21,155.16,-0.74,0.67,-0.28,1.04,1.06
6:7:41:52:1135216,116.97,-45.11,154.98,-0.69,0.63,-0.33,0.99,1.02
6:7:41:53:1135615,118.26,-43.82,153.87,-0.67,0.61,-0.17,0.92,0.98
6:7:41:53:1135710,117.86,-43.6,154.03,-0.71,0.65,-0.34,1.02,0.98
6:7:41:53:1135806,118.34,-43.15,153.43,-0.68,0.66,-0.35,1.01,0.98
6:7:41:53:1135902,119.24,-43.39,152.53,-0.72,0.69,-0.37,1.07,1.03
6:7:41:53:1136029,119.88,-43.13,152.11,-0.69,0.68,-0.36,1.03,1.03
6:7:41:53:1136110,120.37,-43.19,151.64,-0.7,0.63,-0.35,1.0,1.03
6:7:41:53:1136205,120.16,-42.99,151.49,-0.7,0.65,-0.36,1.02,1.02
6:7:41:54:1136613,121.85,-44.03,150.22,-0.63,0.53,-0.32,0.88,0.97
6:7:41:54:1136724,121.75,-44.33,150.17,-0.74,0.64,-0.36,1.04,0.98
6:7:41:54:1136820,121.61,-44.34,150.48,-0.71,0.65,-0.37,1.03,0.99
6:7:41:54:1136916,121.83,-44.6,150.3,-0.7,0.63,-0.33,1.0,1.03
6:7:41:54:1137013,121.94,-44.44,150.28,-0.68,0.63,-0.46,1.03,1.02
6:7:41:54:1137108,122.2,-44.34,150.43,-0.77,0.59,-0.31,1.02,1.02
6:7:41:54:1137219,119.99,-43.93,151.32,-0.77,0.69,-0.39,1.1,1.05
6:7:41:55:1137626,118.42,-43.36,151.93,-0.68,0.65,-0.34,1.0,1.04
6:7:41:55:1137722,118.01,-43.38,152.26,-0.7,0.68,-0.34,1.03,1.05
6:7:41:55:1137820,118.23,-43.44,152.45,-0.71,0.63,-0.36,1.01,1.02
6:7:41:55:1137914,118.42,-43.48,152.46,-0.7,0.66,-0.35,1.02,1.02
6:7:41:55:1138025,117.83,-43.21,152.78,-0.7,0.67,-0.42,1.06,1.03
6:7:41:55:1138121,117.72,-43.31,152.66,-0.68,0.63,-0.37,1.0,1.03
6:7:41:55:1138218,117.88,-43.35,152.17,-0.7,0.69,-0.35,1.04,1.03
6:7:41:56:1138614,117.13,-43.51,152.15,-0.7,0.68,-0.33,1.03,1.02
6:7:41:56:1138711,117.11,-43.59,152.24,-0.7,0.67,-0.34,1.03,1.03
6:7:41:56:1138806,117.09,-43.57,152.28,-0.7,0.66,-0.33,1.02,1.03
6:7:41:56:1138902,116.85,-43.56,152.37,-0.71,0.67,-0.34,1.04,1.03
6:7:41:56:1139013,116.84,-43.52,152.38,-0.71,0.67,-0.33,1.03,1.03
6:7:41:56:1139111,116.92,-43.49,152.24,-0.7,0.65,-0.34,1.01,1.03
6:7:41:56:1139206,116.95,-43.57,152.06,-0.71,0.67,-0.33,1.03,1.02
6:7:41:57:1139614,117.36,-43.63,151.27,-0.7,0.64,-0.33,1.0,1.01
6:7:41:57:1139726,117.2,-43.48,151.09,-0.69,0.66,-0.35,1.02,1.02
6:7:41:57:1139822,116.97,-43.36,151.25,-0.7,0.66,-0.34,1.02,1.01
6:7:41:57:1139918,116.8,-43.25,151.49,-0.7,0.67,-0.33,1.03,1.02
6:7:41:57:1140013,116.67,-43.13,151.6,-0.7,0.67,-0.33,1.03,1.02
6:7:41:57:1140111,116.56,-43.09,151.76,-0.69,0.68,-0.33,1.02,1.02
6:7:41:57:1140205,116.52,-43.03,151.98,-0.69,0.66,-0.34,1.01,1.02
6:7:41:58:1140616,116.06,-42.95,152.4,-0.71,0.68,-0.34,1.04,1.03
6:7:41:58:1140727,116.12,-42.85,152.44,-0.69,0.69,-0.33,1.03,1.03
6:7:41:58:1140806,115.99,-42.53,152.45,-0.69,0.69,-0.33,1.03,1.03
6:7:41:58:1140935,115.92,-42.42,152.46,-0.69,0.68,-0.33,1.02,1.03
6:7:41:58:1141014,115.82,-42.46,152.6,-0.69,0.68,-0.32,1.02,1.02
6:7:41:58:1141127,115.81,-42.42,152.62,-0.68,0.68,-0.33,1.01,1.02
6:7:41:58:1141221,115.85,-42.43,152.55,-0.68,0.68,-0.32,1.01,1.02
6:7:41:59:1141622,115.47,-42.42,152.93,-0.69,0.68,-0.32,1.02,1.01
6:7:41:59:1141718,115.43,-42.39,152.95,-0.69,0.69,-0.33,1.03,1.02
6:7:41:59:1141830,115.27,-42.28,152.99,-0.69,0.69,-0.32,1.03,1.02
6:7:41:59:1141910,115.09,-42.14,153.05,-0.7,0.69,-0.32,1.03,1.03
6:7:41:59:1142006,114.95,-41.82,153.12,-0.66,0.69,-0.32,1.0,1.02
6:7:41:59:1142118,115.02,-41.76,153.06,-0.68,0.7,-0.32,1.03,1.02
6:7:41:59:1142215,115.43,-41.73,152.83,-0.66,0.67,-0.31,0.99,1.01
6:7:42:0:1142613,121.21,-44.43,147.97,-0.7,0.56,-0.35,0.97,1.0
6:7:42:0:1142710,124.05,-45.12,144.9,-0.68,0.59,-0.4,0.98,0.98
6:7:42:0:1142806,126.33,-46.37,143.02,-0.74,0.6,-0.42,1.04,1.0
6:7:42:0:1142917,128.67,-47.1,141.9,-0.76,0.55,-0.42,1.03,1.02
6:7:42:0:1143013,131.85,-47.95,140.04,-0.73,0.53,-0.44,1.0,1.02
6:7:42:0:1143128,133.64,-48.41,140.3,-0.79,0.49,-0.49,1.05,1.03
6:7:42:0:1143221,134.55,-48.68,140.94,-0.79,0.52,-0.5,1.07,1.04
6:7:42:1:1143636,133.89,-47.8,146.03,-0.79,0.58,-0.45,1.08,1.07
6:7:42:1:1143701,136.88,-47.12,144.79,-0.84,0.49,-0.48,1.09,1.08
6:7:42:1:1143829,139.89,-46.58,142.88,-0.72,0.41,-0.53,0.98,1.05
6:7:42:1:1143926,139.81,-46.57,143.29,-0.73,0.48,-0.53,1.02,1.03
6:7:42:1:1144022,139.46,-47.67,144.17,-0.78,0.45,-0.49,1.03,1.01
6:7:42:1:1144117,137.96,-48.54,145.52,-0.79,0.45,-0.46,1.02,1.02
6:7:42:1:1144229,136.62,-49.65,146.78,-0.82,0.45,-0.45,1.04,1.03
6:7:42:2:1144628,140.13,-48.38,144.48,-0.65,0.47,-0.45,0.92,1.0
6:7:42:2:1144724,140.08,-48.1,143.97,-0.83,0.42,-0.48,1.05,1.0
6:7:42:2:1144821,138.35,-47.89,142.65,-0.75,0.4,-0.44,0.96,0.98
6:7:42:2:1144917,133.21,-47.84,142.29,-0.74,0.46,-0.36,0.94,0.98
6:7:42:2:1145013,127.43,-48.78,141.63,-0.68,0.4,-0.26,0.83,0.91
6:7:42:2:1145110,118.36,-50.56,142.82,-0.79,0.57,-0.29,1.02,0.93
6:7:42:2:1145221,110.88,-52.24,143.66,-0.74,0.66,-0.28,1.03,0.96
6:7:42:3:1145621,72.62,-59.15,170.41,-0.77,0.47,0.19,0.93,0.99
6:7:42:3:1145717,61.5,-57.3,178.9,-0.7,0.44,0.31,0.88,0.95
6:7:42:3:1145829,50.85,-53.6,-173.3,-0.73,0.35,0.44,0.93,0.91
6:7:42:3:1145926,40.05,-48.48,-166.11,-0.81,0.35,0.64,1.09,0.97
6:7:42:3:1146021,29.02,-42.99,-159.6,-0.7,0.38,0.66,1.03,1.02
6:7:42:3:1146117,20.38,-37.67,-155.96,-0.59,0.34,0.75,1.01,1.04
6:7:42:3:1146228,14.65,-31.16,-154.88,-0.6,0.29,0.72,0.99,1.01
6:7:42:4:1146627,0.35,-12.93,-152.26,-0.31,-0.0,1.04,1.08,1.03
6:7:42:4:1146709,-0.07,-10.3,-151.27,-0.26,0.09,1.01,1.04,1.04
6:7:42:4:1146805,0.63,-7.02,-151.31,-0.18,0.01,1.0,1.01,1.05
6:7:42:4:1146901,1.08,-4.58,-152.26,-0.16,0.08,0.98,1.0,1.02
6:7:42:4:1147011,1.09,-3.69,-152.8,-0.13,0.01,1.01,1.02,1.01
6:7:42:4:1147109,0.66,-3.42,-152.99,-0.09,-0.0,1.03,1.03,1.02
6:7:42:4:1147220,-0.17,-3.14,-152.81,0.15,-0.23,1.11,1.14,1.06
6:7:42:5:1147619,-5.06,1.42,-150.62,0.01,-0.1,0.98,0.98,1.05
6:7:42:5:1147716,-4.23,1.72,-149.18,0.02,-0.01,0.98,0.98,1.03
6:7:42:5:1147812,-3.97,1.85,-147.77,0.03,-0.03,0.98,0.98,0.98
6:7:42:5:1147909,-4.05,1.65,-146.33,0.02,-0.05,0.99,0.99,0.98
6:7:42:5:1148019,-3.95,1.51,-145.02,0.01,-0.04,0.98,0.98,0.99
6:7:42:5:1148116,-3.49,1.55,-143.99,0.01,-0.02,0.98,0.98,0.98
6:7:42:5:1148211,-3.47,1.42,-142.99,-0.02,-0.04,0.97,0.97,0.98
6:7:42:6:1148612,-2.95,1.26,-139.72,0.06,0.02,0.97,0.97,0.97
6:7:42:6:1148708,-3.54,0.87,-138.95,0.02,-0.05,0.99,0.99,0.98
6:7:42:6:1148819,-3.42,0.81,-138.4,-0.0,-0.04,0.98,0.99,0.98
6:7:42:6:1148916,-3.24,0.82,-137.93,-0.0,-0.06,0.97,0.97,0.98
6:7:42:6:1149011,-3.27,0.71,-137.36,0.01,-0.05,0.98,0.98,0.98
6:7:42:6:1149107,-4.14,0.3,-136.85,-0.0,-0.06,0.98,0.98,0.98
6:7:42:6:1149203,-5.16,-0.24,-136.47,-0.02,-0.09,0.98,0.99,0.98
6:7:42:7:1149603,-5.25,-0.47,-135.27,-0.01,-0.09,0.98,0.98,0.98
6:7:42:7:1149715,-5.32,-0.53,-135.03,-0.02,-0.09,0.97,0.98,0.98
6:7:42:7:1149811,-5.26,-0.51,-134.82,-0.02,-0.08,0.98,0.98,0.98
6:7:42:7:1149907,-5.11,-0.49,-134.62,-0.02,-0.08,0.97,0.98,0.98
6:7:42:7:1150018,-5.01,-0.51,-134.41,-0.01,-0.07,0.97,0.97,0.98
6:7:42:7:1150115,-4.71,-0.5,-134.14,-0.06,-0.04,0.95,0.95,0.97
6:7:42:7:1150210,-4.76,-0.05,-134.48,-0.04,0.35,0.63,0.72,0.88
6:7:42:8:1150642,-4.35,0.91,-133.79,0.03,-0.06,0.99,1.0,0.89
6:7:42:8:1150722,-2.89,1.58,-133.74,0.02,-0.04,0.98,0.98,0.9
6:7:42:8:1150818,-1.91,2.3,-133.92,0.07,-0.01,0.97,0.97,0.98
6:7:42:8:1150914,-2.61,1.71,-133.64,-0.0,-0.06,0.98,0.98,0.98
6:7:42:8:1151010,-3.32,1.36,-133.35,0.03,-0.08,0.98,0.98,0.98
6:7:42:8:1151121,-3.03,1.46,-133.28,0.03,-0.05,0.98,0.98,0.98
6:7:42:8:1151202,-2.2,1.98,-133.31,0.05,-0.03,0.97,0.97,0.98
6:7:42:9:1151618,-2.39,1.76,-133.06,0.03,-0.05,0.98,0.98,0.98
6:7:42:9:1151715,-2.62,1.59,-132.99,0.03,-0.06,0.98,0.98,0.98
6:7:42:9:1151809,-2.6,1.54,-132.95,0.0,0.02,1.01,1.01,0.99
6:7:42:9:1151907,-2.85,1.44,-132.87,0.03,-0.05,0.98,0.98,0.99
6:7:42:9:1152002,-3.01,1.26,-132.89,0.01,-0.06,0.98,0.98,0.99
6:7:42:9:1152131,-2.52,1.6,-132.88,0.02,-0.05,0.97,0.98,0.98
6:7:42:9:1152210,-2.4,1.95,-133.01,-0.05,-0.1,1.18,1.18,1.05
6:7:42:10:1152610,0.15,2.88,-128.85,0.01,0.05,1.13,1.13,1.1
6:7:42:10:1152721,2.07,1.48,-128.58,0.04,0.07,1.04,1.04,1.12
6:7:42:10:1152818,3.79,0.38,-127.69,0.05,0.07,1.06,1.07,1.08
6:7:42:10:1152929,6.02,-0.55,-125.38,-0.03,0.2,0.83,0.85,0.99
6:7:42:10:1153026,6.37,-1.05,-122.82,-0.08,0.07,1.07,1.08,1.0
6:7:42:10:1153122,5.5,-0.64,-122.55,-0.02,0.08,0.99,0.99,0.97
6:7:42:10:1153202,4.11,0.5,-122.68,-0.02,0.09,1.0,1.0,1.02
6:7:42:11:1153633,1.19,1.2,-124.25,0.01,0.01,1.03,1.03,1.01
6:7:42:11:1153713,1.53,0.74,-125.23,0.15,-0.1,1.05,1.07,1.03
6:7:42:11:1153809,1.95,0.49,-125.91,0.0,0.11,0.99,1.0,1.03
6:7:42:11:1153906,2.14,0.29,-125.41,0.02,-0.03,0.98,0.98,1.02
6:7:42:11:1154032,2.01,0.5,-126.16,-0.03,0.07,0.99,0.99,0.99
6:7:42:11:1154130,1.61,1.1,-127.15,0.04,0.11,0.96,0.97,0.98
6:7:42:11:1154209,1.4,1.55,-127.87,0.03,0.01,0.96,0.97,0.97
6:7:42:12:1154625,2.86,-1.29,-126.91,-0.05,0.05,1.03,1.03,0.99
6:7:42:12:1154722,4.93,-2.98,-126.87,-0.0,0.04,1.06,1.06,1.02
6:7:42:12:1154817,7.76,-5.22,-126.79,-0.2,0.25,0.92,0.98,1.02
6:7:42:12:1154913,10.81,-7.48,-125.17,-0.17,0.03,0.88,0.89,0.98
6:7:42:12:1155024,14.03,-10.92,-125.05,-0.44,0.39,0.94,1.11,0.99
6:7:42:12:1155121,14.94,-13.36,-126.33,-0.24,0.35,1.02,1.11,1.04
6:7:42:12:1155217,16.61,-15.37,-128.02,-0.37,0.41,0.97,1.12,1.11
6:7:42:13:1155617,43.16,-38.42,-135.56,-0.16,0.41,0.7,0.82,1.01
6:7:42:13:1155713,54.52,-45.53,-141.52,-0.47,0.47,0.51,0.84,0.93
6:7:42:13:1155808,62.74,-48.65,-145.23,-0.78,0.71,0.42,1.13,0.93
6:7:42:13:1155919,72.07,-50.05,-150.67,-0.85,0.69,0.34,1.14,1.04
6:7:42:13:1156017,82.49,-51.17,-157.58,-0.76,0.66,0.16,1.02,1.1
6:7:42:13:1156112,92.87,-50.4,-164.88,-0.58,0.52,-0.02,0.78,0.98
6:7:42:13:1156209,101.48,-50.11,-170.48,-0.46,0.4,-0.07,0.62,0.81
6:7:42:14:1156619,111.01,-44.77,-179.21,-0.66,0.75,-0.22,1.02,0.8
6:7:42:14:1156700,113.12,-42.65,176.7,-0.83,0.78,-0.21,1.16,0.93
6:7:42:14:1156827,118.43,-40.08,169.52,-0.68,0.81,-0.21,1.07,1.08
6:7:42:14:1156925,122.28,-37.45,164.45,-0.61,0.74,-0.25,0.99,1.07
6:7:42:14:1157021,126.17,-35.62,160.03,-0.56,0.73,-0.41,1.01,1.03
6:7:42:14:1157116,130.7,-34.67,156.15,-0.53,0.56,-0.44,0.89,0.96
6:7:42:14:1157212,134.7,-33.95,152.57,-0.59,0.57,-0.49,0.95,0.95
6:7:42:15:1157612,144.07,-30.65,139.51,-0.56,0.49,-0.61,0.97,0.94
6:7:42:15:1157724,146.75,-30.02,137.69,-0.52,0.53,-0.66,0.99,0.97
6:7:42:15:1157821,149.78,-29.43,137.99,-0.55,0.43,-0.71,0.99,0.98
6:7:42:15:1157916,151.99,-30.31,138.81,-0.54,0.4,-0.71,0.98,0.99
6:7:42:15:1158012,151.52,-30.79,140.61,-0.57,0.41,-0.68,0.98,0.98
6:7:42:15:1158108,151.3,-31.18,139.64,-0.52,0.49,-0.7,1.0,0.99
6:7:42:15:1158205,151.91,-31.81,136.94,-0.51,0.49,-0.69,0.99,0.99
6:7:42:16:1158621,147.49,-33.46,134.4,-0.52,0.53,-0.69,1.01,1.0
6:7:42:16:1158700,146.59,-34.7,134.61,-0.65,0.53,-0.68,1.08,1.03
6:7:42:16:1158810,146.79,-35.94,134.76,-0.75,0.5,-0.7,1.15,1.08
6:7:42:16:1158924,148.3,-35.99,133.75,-0.73,0.5,-0.72,1.14,1.12
6:7:42:16:1159020,149.93,-35.24,132.7,-0.63,0.45,-0.7,1.04,1.11
6:7:42:16:1159116,150.91,-35.3,132.35,-0.63,0.42,-0.72,1.04,1.08
6:7:42:16:1159212,151.08,-35.6,132.52,-0.61,0.4,-0.77,1.06,1.05
6:7:42:17:1159627,149.34,-38.44,134.5,-0.68,0.42,-0.68,1.04,1.05
6:7:42:17:1159723,149.04,-38.36,134.43,-0.66,0.4,-0.65,1.01,1.04
6:7:42:17:1159820,149.09,-38.7,134.09,-0.68,0.4,-0.64,1.02,1.02
6:7:42:17:1159915,149.3,-38.57,133.07,-0.64,0.44,-0.67,1.03,1.02
6:7:42:17:1160012,149.1,-38.84,132.76,-0.66,0.44,-0.66,1.03,1.03
6:7:42:17:1160122,148.83,-38.81,132.61,-0.65,0.43,-0.67,1.03,1.03
6:7:42:17:1160204,149.24,-38.7,132.08,-0.64,0.43,-0.67,1.02,1.03
6:7:42:18:1160604,149.78,-39.74,132.24,-0.67,0.39,-0.68,1.03,1.02
6:7:42:18:1160731,149.71,-39.95,132.23,-0.68,0.42,-0.68,1.05,1.03
6:7:42:18:1160826,149.66,-39.81,132.22,-0.69,0.42,-0.68,1.05,1.04
6:7:42:18:1160923,149.74,-39.67,132.1,-0.66,0.41,-0.67,1.03,1.04
6:7:42:18:1161020,149.85,-39.44,131.9,-0.64,0.4,-0.67,1.01,1.03
6:7:42:18:1161115,149.57,-39.37,132.22,-0.65,0.41,-0.68,1.03,1.02
6:7:42:18:1161212,149.7,-39.53,132.22,-0.66,0.41,-0.68,1.03,1.03
6:7:42:19:1161627,149.72,-40.64,131.97,-0.65,0.39,-0.66,1.01,1.02
6:7:42:19:1161723,148.92,-40.85,132.56,-0.68,0.43,-0.66,1.04,1.03
6:7:42:19:1161819,148.88,-40.79,132.83,-0.67,0.42,-0.66,1.03,1.03
6:7:42:19:1161914,149.79,-40.84,132.46,-0.64,0.37,-0.65,0.98,1.02
6:7:42:19:1162011,150.12,-41.47,132.21,-0.68,0.37,-0.64,1.0,1.01
6:7:42:19:1162123,149.61,-42.25,132.36,-0.74,0.4,-0.65,1.06,1.02
6:7:42:19:1162219,148.86,-42.02,133.18,-0.71,0.39,-0.65,1.04,1.03
6:7:42:20:1162620,147.15,-42.98,134.98,-0.69,0.42,-0.64,1.03,1.04
6:7:42:20:1162715,148.3,-43.61,134.36,-0.72,0.4,-0.62,1.03,1.03
6:7:42:20:1162811,149.15,-44.48,133.5,-0.74,0.4,-0.61,1.04,1.03
6:7:42:20:1162907,148.35,-44.77,133.96,-0.74,0.39,-0.61,1.04,1.04
6:7:42:20:1163020,147.7,-44.99,134.21,-0.74,0.42,-0.6,1.04,1.04
6:7:42:20:1163130,148.92,-45.49,132.79,-0.75,0.4,-0.6,1.03,1.04
6:7:42:20:1163226,148.64,-45.35,133.05,-0.74,0.38,-0.61,1.03,1.04
6:7:42:21:1163632,147.74,-45.73,133.53,-0.74,0.4,-0.61,1.04,1.03
6:7:42:21:1163714,147.3,-45.82,133.89,-0.76,0.39,-0.6,1.04,1.04
6:7:42:21:1163810,147.61,-45.64,133.3,-0.71,0.39,-0.6,1.01,1.03
6:7:42:21:1163905,147.6,-45.33,133.3,-0.73,0.38,-0.6,1.02,1.02
6:7:42:21:1164032,147.44,-45.33,133.31,-0.74,0.4,-0.61,1.04,1.02
6:7:42:21:1164129,147.41,-45.29,133.07,-0.72,0.39,-0.61,1.02,1.03
6:7:42:21:1164225,147.33,-45.36,132.89,-0.73,0.39,-0.59,1.02,1.03
6:7:42:22:1164624,146.83,-45.41,132.74,-0.72,0.39,-0.6,1.02,1.02
6:7:42:22:1164705,147.12,-45.71,132.71,-0.74,0.38,-0.6,1.02,1.02
6:7:42:22:1164815,147.38,-46.11,132.61,-0.77,0.39,-0.61,1.05,1.03
6:7:42:22:1164913,147.3,-45.99,132.65,-0.73,0.39,-0.62,1.03,1.04
6:7:42:22:1165009,147.32,-45.79,132.58,-0.72,0.38,-0.6,1.01,1.03
6:7:42:22:1165105,147.22,-45.93,132.57,-0.73,0.39,-0.58,1.01,1.02
6:7:42:22:1165215,147.03,-45.97,132.67,-0.74,0.39,-0.6,1.03,1.02
6:7:42:23:1165615,147.17,-46.78,132.81,-0.76,0.38,-0.6,1.04,1.03
6:7:42:23:1165712,147.57,-46.9,132.72,-0.78,0.37,-0.61,1.06,1.04
6:7:42:23:1165825,148.33,-46.32,132.2,-0.81,0.38,-0.62,1.09,1.06
6:7:42:23:1165921,149.43,-45.42,130.99,-0.81,0.41,-0.64,1.11,1.09
6:7:42:23:1166017,149.74,-44.7,130.47,-0.81,0.41,-0.66,1.12,1.11
6:7:42:23:1166128,149.85,-44.42,130.38,-0.83,0.43,-0.65,1.14,1.12
6:7:42:23:1166209,150.59,-44.49,130.19,-0.85,0.43,-0.66,1.16,1.14
6:7:42:24:1166639,153.25,-43.08,130.2,-0.65,0.28,-0.61,0.94,1.08
6:7:42:24:1166722,154.54,-42.04,129.1,-0.58,0.31,-0.64,0.92,1.0
6:7:42:24:1166814,154.28,-41.07,129.54,-0.57,0.28,-0.65,0.91,0.92
6:7:42:24:1166911,154.15,-40.06,129.25,-0.55,0.33,-0.69,0.94,0.92
6:7:42:24:1167010,152.87,-39.22,130.46,-0.59,0.35,-0.67,0.96,0.94
6:7:42:24:1167105,151.31,-38.55,131.94,-0.56,0.37,-0.7,0.97,0.96
6:7:42:24:1167202,151.73,-38.54,131.5,-0.63,0.35,-0.67,0.98,0.97
6:7:42:25:1167625,151.62,-36.03,130.43,-0.61,0.42,-0.71,1.03,0.99
6:7:42:25:1167706,152.23,-34.71,128.79,-0.56,0.44,-0.74,1.02,1.01
6:7:42:25:1167803,152.37,-33.3,128.43,-0.53,0.36,-0.75,0.99,1.01
6:7:42:25:1167929,152.01,-32.83,128.81,-0.55,0.4,-0.75,1.01,1.01
6:7:42:25:1168026,151.79,-33.3,129.58,-0.59,0.39,-0.75,1.03,1.01
6:7:42:25:1168122,151.11,-33.84,130.2,-0.59,0.42,-0.71,1.01,1.02
6:7:42:25:1168218,146.86,-34.47,133.15,-0.59,0.42,-0.67,0.99,1.01
6:7:42:26:1168618,97.16,-43.77,149.62,-0.69,0.64,-0.01,0.94,0.98
6:7:42:26:1168713,81.31,-41.19,155.36,-0.7,0.86,0.1,1.11,1.01
6:7:42:26:1168824,69.18,-38.18,158.51,-0.67,0.8,0.11,1.05,1.03
6:7:42:26:1168922,59.14,-35.92,160.47,-0.55,0.83,0.54,1.13,1.1
6:7:42:26:1169018,50.11,-31.53,161.0,-0.59,0.62,0.47,0.98,1.05
6:7:42:26:1169115,42.66,-27.87,160.11,-0.56,0.66,0.53,1.02,1.04
6:7:42:26:1169210,37.65,-27.66,160.17,-0.56,0.65,0.59,1.04,1.01
6:7:42:27:1169610,23.87,-25.77,158.74,-0.41,0.43,0.91,1.09,1.05
6:7:42:27:1169719,22.13,-25.43,158.8,-0.38,0.39,0.89,1.04,1.06
6:7:42:27:1169816,21.34,-24.3,158.01,-0.31,0.33,0.78,0.9,1.01
6:7:42:27:1169912,20.62,-22.78,157.75,-0.29,0.28,0.8,0.9,0.95
6:7:42:27:1170028,19.28,-20.89,157.68,-0.34,0.29,0.85,0.96,0.92
6:7:42:27:1170104,17.75,-19.42,156.28,-0.44,0.37,1.0,1.15,1.0
6:7:42:27:1170217,15.34,-17.53,156.34,-0.47,0.3,1.04,1.18,1.1
6:7:42:28:1170683,5.56,-12.85,163.07,-0.24,0.17,0.98,1.02,1.12
6:7:42:28:1170718,4.59,-11.84,168.61,-0.25,0.2,0.99,1.04,1.08
6:7:42:28:1170813,4.64,-11.35,172.57,-0.19,0.15,0.85,0.88,0.98
6:7:42:28:1170909,3.35,-10.71,175.47,-0.16,0.16,0.78,0.82,0.91
6:7:42:28:1171019,1.78,-10.0,176.11,-0.17,0.17,0.87,0.91,0.87
6:7:42:28:1171117,1.19,-8.91,177.77,-0.33,0.21,1.15,1.21,0.98
6:7:42:28:1171213,0.84,-8.88,179.33,-0.23,0.05,1.1,1.12,1.08
6:7:42:29:1171655,-6.29,-7.42,-170.19,-0.22,0.11,1.11,1.14,1.16
6:7:42:29:1171718,-6.39,-5.63,-167.01,-0.14,0.05,0.97,0.98,1.08
6:7:42:29:1171833,-6.46,-5.12,-163.81,-0.09,0.08,0.74,0.75,0.96
6:7:42:29:1171911,-6.46,-4.34,-161.95,-0.08,0.08,0.83,0.84,0.86
6:7:42:29:1172007,-6.28,-3.78,-161.31,-0.12,0.07,1.0,1.01,0.86
6:7:42:29:1172104,-7.39,-3.1,-161.51,-0.15,0.07,1.14,1.15,1.0
6:7:42:29:1172214,-7.94,-2.4,-162.4,-0.17,0.01,1.16,1.17,1.11
6:7:42:30:1172638,-9.06,-2.67,-155.01,-0.1,0.08,1.06,1.06,1.13
6:7:42:30:1172747,-8.72,-1.03,-152.82,-0.16,0.05,1.03,1.05,1.09
6:7:42:30:1172812,-7.52,-2.04,-150.83,-0.04,0.02,0.89,0.89,1.0
6:7:42:30:1172924,-7.42,-2.38,-149.69,-0.05,0.05,0.76,0.76,0.9
6:7:42:30:1173021,-8.03,-2.37,-150.7,-0.07,0.04,0.84,0.85,0.83
6:7:42:30:1173117,-8.92,-2.64,-152.39,-0.11,0.06,1.1,1.11,0.91
6:7:42:30:1173227,-9.65,-2.91,-154.76,-0.14,0.03,1.12,1.13,1.03
6:7:42:31:1173620,-7.23,-4.02,-149.63,-0.11,0.05,1.1,1.11,1.11
6:7:42:31:1173713,-6.49,-2.05,-148.86,-0.12,-0.02,1.05,1.06,1.1
6:7:42:31:1173827,-5.92,-1.98,-147.36,-0.08,0.05,0.92,0.92,1.03
6:7:42:31:1173907,-5.46,-1.7,-147.4,-0.06,0.04,0.76,0.76,0.92
6:7:42:31:1174032,-4.89,-1.07,-148.27,-0.09,0.04,0.85,0.85,0.85
6:7:42:31:1174130,-4.58,-1.39,-149.72,-0.13,0.04,1.1,1.11,0.91
6:7:42:31:1174224,-4.37,-1.63,-151.06,-0.17,0.02,1.12,1.14,1.03
6:7:42:32:1174617,-2.76,-2.86,-150.09,-0.09,0.06,1.04,1.04,1.1
6:7:42:32:1174727,-2.62,-1.36,-148.69,-0.1,0.06,1.05,1.06,1.08
6:7:42:32:1174823,-1.03,-1.32,-146.9,-0.04,0.07,0.93,0.93,1.01
6:7:42:32:1174919,0.61,-0.61,-145.01,-0.06,0.07,0.82,0.83,0.94
6:7:42:32:1175015,1.65,-0.3,-144.95,-0.06,0.07,0.81,0.81,0.86
6:7:42:32:1175111,1.28,-0.43,-146.01,-0.1,0.07,1.08,1.09,0.91
6:7:42:32:1175207,0.39,0.87,-147.17,-0.19,0.1,1.13,1.15,1.02
6:7:42:33:1175622,1.47,-1.8,-142.28,-0.11,0.06,0.97,0.98,1.07
6:7:42:33:1175729,2.1,-1.51,-141.32,-0.16,0.08,0.99,1.0,1.04
6:7:42:33:1175825,1.9,-1.91,-141.8,-0.13,0.07,0.95,0.96,0.98
6:7:42:33:1175921,2.58,-2.36,-142.21,-0.12,0.03,0.77,0.78,0.92
6:7:42:33:1176017,4.29,-3.57,-140.94,-0.11,-0.0,0.78,0.79,0.84
6:7:42:33:1176113,5.36,-5.47,-139.24,-0.12,-0.02,0.99,1.0,0.85
6:7:42:33:1176208,5.96,-5.95,-138.35,-0.13,-0.07,1.05,1.06,0.95
6:7:42:34:1176641,-2.28,-9.1,-127.73,0.0,-0.07,1.14,1.14,1.07
6:7:42:34:1176717,-4.74,-7.09,-124.67,-0.04,-0.0,1.02,1.02,1.07
6:7:42:34:1176827,-5.43,-5.24,-124.6,-0.07,-0.02,1.11,1.12,1.09
6:7:42:34:1176957,-4.78,-3.94,-125.83,-0.04,-0.07,0.98,0.98,1.04
6:7:42:34:1177021,-4.26,-3.12,-126.13,-0.06,-0.07,0.97,0.97,1.02
6:7:42:34:1177117,-3.99,-3.58,-125.95,-0.04,-0.05,1.05,1.05,1.0
6:7:42:34:1177229,0.25,-6.47,-121.88,-0.03,0.07,1.0,1.0,1.01
6:7:42:35:1177627,-1.57,-9.04,-128.32,-0.13,-0.04,0.98,0.99,1.01
6:7:42:35:1177723,-1.15,-8.76,-129.39,-0.12,-0.03,0.97,0.98,0.99
6:7:42:35:1177820,-1.15,-8.79,-130.37,-0.12,-0.04,0.97,0.98,0.98
6:7:42:35:1177931,-1.24,-8.82,-131.22,-0.13,-0.04,0.97,0.98,0.98
6:7:42:35:1178075,-1.16,-8.71,-132.03,-0.12,-0.04,0.97,0.98,0.98
6:7:42:35:1178108,-1.13,-8.62,-132.77,-0.13,-0.04,0.97,0.98,0.98
6:7:42:35:1178236,-1.17,-8.58,-133.46,-0.13,-0.04,0.97,0.98,0.98
6:7:42:36:1178624,-1.3,-8.28,-135.65,-0.12,-0.04,0.98,0.99,0.98
6:7:42:36:1178718,-1.35,-8.22,-136.1,-0.12,-0.04,0.97,0.98,0.98
6:7:42:36:1178816,-1.39,-8.17,-136.49,-0.13,-0.04,0.97,0.98,0.98
6:7:42:36:1178993,-1.43,-8.11,-136.86,-0.12,-0.04,0.97,0.98,0.98
6:7:42:36:1179024,-1.46,-8.06,-137.23,-0.12,-0.04,0.98,0.99,0.98
6:7:42:36:1179105,-1.55,-7.97,-137.36,-0.12,-0.04,0.97,0.98,0.98
6:7:42:36:1179216,-1.62,-7.9,-137.51,-0.12,-0.04,0.97,0.98,0.98
6:7:42:37:1179612,-1.81,-7.72,-137.99,-0.12,-0.04,0.97,0.98,0.98
6:7:42:37:1179836,-1.84,-7.68,-138.11,-0.12,-0.04,0.98,0.98,0.98
6:7:42:37:1179851,-1.87,-7.64,-138.21,-0.13,-0.04,0.98,0.98,0.98
6:7:42:37:1179933,-1.89,-7.63,-138.32,-0.12,-0.04,0.97,0.98,0.98
6:7:42:37:1180011,-1.91,-7.61,-138.42,-0.13,-0.04,0.97,0.98,0.98
6:7:42:37:1180123,-1.94,-7.58,-138.45,-0.12,-0.04,0.97,0.98,0.98
6:7:42:37:1180252,-1.96,-7.56,-138.51,-0.13,-0.04,0.97,0.98,0.98
6:7:42:38:1180618,-2.02,-7.52,-138.79,-0.13,-0.04,0.97,0.98,0.98
6:7:42:38:1180715,-2.03,-7.5,-138.83,-0.12,-0.04,0.97,0.98,0.98
6:7:42:38:1180825,-2.04,-7.5,-138.87,-0.13,-0.04,0.97,0.98,0.98
6:7:42:38:1180938,-2.04,-7.48,-138.91,-0.12,-0.04,0.98,0.99,0.98
6:7:42:38:1181035,-2.05,-7.47,-138.94,-0.13,-0.04,0.97,0.98,0.98
6:7:42:38:1181116,-2.04,-7.47,-138.98,-0.12,-0.04,0.97,0.98,0.98
6:7:42:38:1181212,-2.04,-7.47,-139.03,-0.12,-0.04,0.97,0.98,0.98
6:7:42:39:1181615,-2.04,-7.47,-139.22,-0.13,-0.04,0.97,0.98,0.98
6:7:42:39:1181743,-2.03,-7.48,-139.38,-0.12,-0.04,0.97,0.98,0.98
6:7:42:39:1181823,-2.01,-7.5,-139.54,-0.13,-0.04,0.97,0.98,0.98
6:7:42:39:1181919,-1.99,-7.52,-139.68,-0.12,-0.04,0.97,0.98,0.98
6:7:42:39:1182030,-1.99,-7.53,-139.81,-0.13,-0.04,0.97,0.98,0.98
6:7:42:39:1182126,-1.99,-7.53,-139.92,-0.12,-0.04,0.97,0.98,0.98
6:7:42:39:1182223,-1.99,-7.53,-140.01,-0.13,-0.04,0.97,0.98,0.98
6:7:42:40:1182638,-2.0,-7.5,-140.36,-0.13,-0.04,0.97,0.98,0.98
6:7:42:40:1182735,-2.02,-7.5,-140.4,-0.12,-0.03,0.95,0.96,0.97
6:7:42:40:1182815,-2.01,-7.51,-140.5,-0.12,-0.04,0.97,0.98,0.97
6:7:42:40:1182911,-2.01,-7.5,-140.58,-0.12,-0.04,0.97,0.98,0.97
6:7:42:40:1183022,-2.02,-7.49,-140.61,-0.12,-0.04,0.97,0.98,0.98
6:7:42:40:1183182,-2.04,-7.48,-140.61,-0.12,-0.04,0.97,0.98,0.98
6:7:42:40:1183215,-2.04,-7.47,-140.64,-0.13,-0.04,0.98,0.98,0.98
6:7:42:41:1183605,-2.06,-7.47,-140.78,-0.13,-0.04,0.97,0.98,0.98
6:7:42:41:1183716,-2.07,-7.46,-140.78,-0.12,-0.04,0.97,0.98,0.98
6:7:42:41:1183813,-2.08,-7.45,-140.79,-0.12,-0.04,0.98,0.99,0.98
6:7:42:41:1183908,-2.08,-7.45,-140.81,-0.13,-0.04,0.97,0.98,0.98
6:7:42:41:1184052,-2.09,-7.45,-140.83,-0.12,-0.04,0.97,0.98,0.98
6:7:42:41:1184116,-2.09,-7.45,-140.87,-0.13,-0.04,0.97,0.98,0.98
6:7:42:41:1184229,-2.1,-7.43,-140.86,-0.12,-0.04,0.97,0.98,0.98
6:7:42:42:1184622,-2.11,-7.43,-140.91,-0.13,-0.04,0.97,0.98,0.98
6:7:42:42:1184749,-2.11,-7.44,-140.93,-0.13,-0.04,0.97,0.98,0.98
6:7:42:42:1184814,-2.12,-7.43,-140.93,-0.12,-0.04,0.97,0.98,0.98
6:7:42:42:1184910,-2.11,-7.44,-140.97,-0.12,-0.04,0.98,0.98,0.98
6:7:42:42:1185085,-2.1,-7.43,-140.98,-0.12,-0.04,0.97,0.98,0.98
6:7:42:42:1185118,-2.11,-7.43,-140.99,-0.13,-0.04,0.97,0.98,0.98
6:7:42:42:1185214,-2.12,-7.43,-141.0,-0.12,-0.04,0.98,0.99,0.98
6:7:42:43:1185643,-2.1,-7.44,-141.12,-0.13,-0.04,0.97,0.98,0.98
6:7:42:43:1185723,-2.11,-7.44,-141.13,-0.13,-0.04,0.97,0.98,0.98
6:7:42:43:1185819,-2.11,-7.44,-141.13,-0.12,-0.03,0.96,0.96,0.97
6:7:42:43:1185915,-2.11,-7.44,-141.16,-0.13,-0.04,0.97,0.98,0.97
6:7:42:43:1186059,-2.1,-7.45,-141.18,-0.13,-0.04,0.98,0.98,0.98
6:7:42:43:1186155,-2.12,-7.44,-141.15,-0.13,-0.04,0.97,0.98,0.98
6:7:42:43:1186219,-2.12,-7.43,-141.16,-0.12,-0.04,0.97,0.98,0.98
6:7:42:44:1186618,-2.14,-7.41,-141.09,-0.13,-0.04,0.97,0.98,0.98
6:7:42:44:1186715,-2.13,-7.41,-141.12,-0.12,-0.04,0.97,0.98,0.98
6:7:42:44:1186811,-2.13,-7.41,-141.12,-0.12,-0.04,0.97,0.98,0.98
6:7:42:44:1186907,-2.14,-7.41,-141.09,-0.12,-0.04,0.98,0.99,0.98
6:7:42:44:1187017,-2.15,-7.4,-141.08,-0.12,-0.04,0.97,0.98,0.98
6:7:42:44:1187131,-2.15,-7.41,-141.08,-0.13,-0.04,0.97,0.98,0.98
6:7:42:44:1187211,-2.15,-7.4,-141.08,-0.12,-0.04,0.97,0.98,0.98
6:7:42:45:1187620,-2.14,-7.4,-141.06,-0.13,-0.04,0.97,0.98,0.98
6:7:42:45:1187716,-2.14,-7.4,-141.05,-0.13,-0.04,0.97,0.98,0.98
6:7:42:45:1187812,-2.15,-7.4,-141.04,-0.12,-0.04,0.97,0.98,0.98
6:7:42:45:1187908,-2.15,-7.4,-141.01,-0.12,-0.04,0.97,0.98,0.98
6:7:42:45:1188004,-2.14,-7.41,-141.04,-0.12,-0.04,0.97,0.98,0.98
6:7:42:45:1188115,-2.15,-7.4,-141.01,-0.12,-0.04,0.97,0.98,0.98
6:7:42:45:1188229,-2.15,-7.4,-140.99,-0.13,-0.04,0.97,0.98,0.98
6:7:42:46:1188611,-2.13,-7.4,-140.98,-0.12,-0.04,0.97,0.98,0.98
6:7:42:46:1188706,-2.14,-7.41,-140.99,-0.13,-0.04,0.97,0.98,0.98
6:7:42:46:1188801,-2.14,-7.41,-140.97,-0.13,-0.04,0.97,0.98,0.98
6:7:42:46:1188930,-2.14,-7.41,-140.96,-0.13,-0.04,0.97,0.98,0.98
6:7:42:46:1189025,-2.12,-7.43,-141.02,-0.12,-0.03,0.97,0.98,0.98
6:7:42:46:1189121,-2.15,-7.41,-140.91,-0.13,-0.04,0.97,0.98,0.98
6:7:42:46:1189218,-2.13,-7.41,-140.93,-0.13,-0.04,0.97,0.98,0.98
6:7:42:47:1189611,-2.11,-7.44,-141.04,-0.13,-0.04,0.97,0.98,0.98
6:7:42:47:1189707,-2.12,-7.45,-141.06,-0.12,-0.04,0.97,0.98,0.98
6:7:42:47:1189818,-2.12,-7.44,-141.05,-0.12,-0.04,0.98,0.98,0.98
6:7:42:47:1189915,-2.12,-7.44,-141.02,-0.13,-0.04,0.97,0.98,0.98
6:7:42:47:1190011,-2.11,-7.43,-141.05,-0.11,-0.03,0.98,0.98,0.98
6:7:42:47:1190107,-2.11,-7.43,-141.07,-0.12,-0.04,0.97,0.98,0.98
6:7:42:47:1190203,-2.12,-7.45,-141.11,-0.13,-0.04,0.98,0.98,0.98
6:7:42:48:1190628,-2.14,-7.46,-141.21,-0.11,-0.05,0.97,0.98,0.98
6:7:42:48:1190722,-2.15,-7.46,-141.2,-0.12,-0.04,0.99,0.99,0.99
6:7:42:48:1190818,-2.15,-7.47,-141.21,-0.11,-0.06,0.97,0.98,0.98
6:7:42:48:1190929,-2.16,-7.49,-141.21,-0.11,-0.05,0.96,0.97,0.98
6:7:42:48:1191027,-2.15,-7.49,-141.23,-0.11,-0.04,0.94,0.95,0.97
6:7:42:48:1191122,-2.14,-7.5,-141.26,-0.1,-0.05,0.95,0.95,0.96
6:7:42:48:1191218,-2.15,-7.49,-141.23,-0.11,-0.04,0.97,0.97,0.96
6:7:42:49:1191644,-2.19,-7.47,-141.16,-0.12,-0.05,0.99,1.0,0.97
6:7:42:49:1191707,-2.19,-7.47,-141.16,-0.12,-0.04,0.98,0.99,0.99
6:7:42:49:1191819,-2.17,-7.48,-141.21,-0.11,-0.03,0.97,0.97,0.99
6:7:42:49:1191932,-2.52,-7.59,-141.17,-0.1,-0.07,0.95,0.95,0.97
6:7:42:49:1192027,-2.51,-7.63,-141.15,-0.13,-0.06,0.98,0.99,0.97
6:7:42:49:1192123,-2.18,-7.5,-141.16,-0.12,-0.02,1.01,1.01,0.98
6:7:42:49:1192220,-2.15,-7.47,-141.14,-0.13,-0.02,0.98,0.99,1.0
6:7:42:50:1192621,-2.77,-7.72,-141.18,-0.13,-0.06,0.98,1.0,1.0
6:7:42:50:1192731,-2.83,-7.71,-141.11,-0.14,-0.06,0.97,0.99,0.99
6:7:42:50:1192828,-2.79,-7.65,-141.12,-0.14,-0.06,1.0,1.01,1.0
6:7:42:50:1192924,-3.24,-7.68,-141.08,-0.14,-0.04,0.98,0.99,1.0
6:7:42:50:1193021,-4.11,-7.69,-140.88,-0.14,-0.05,0.96,0.98,0.99
6:7:42:50:1193132,-4.63,-7.29,-140.49,-0.14,-0.08,1.0,1.01,0.99
6:7:42:50:1193229,-4.58,-6.95,-140.29,-0.17,-0.01,0.97,0.99,0.99
6:7:42:51:1193622,-8.99,-5.55,-135.13,-0.17,-0.13,0.92,0.95,0.98
6:7:42:51:1193719,-8.15,-6.16,-135.54,-0.14,-0.13,0.94,0.96,0.97
6:7:42:51:1193815,-7.9,-5.93,-135.97,-0.2,0.01,1.0,1.02,0.98
6:7:42:51:1193912,-7.99,-5.31,-136.75,-0.07,-0.2,1.02,1.04,1.01
6:7:42:51:1194039,-7.26,-4.95,-137.56,-0.13,-0.04,0.97,0.98,1.01
6:7:42:51:1194118,-6.83,-4.58,-138.1,-0.2,-0.17,0.89,0.93,0.98
6:7:42:51:1194214,-6.23,-4.34,-138.76,-0.45,-0.19,1.29,1.38,1.1
6:7:42:52:1194716,-0.12,-2.21,-140.64,-0.02,-0.04,0.95,0.95,1.09
6:7:42:52:1194812,1.92,-1.77,-142.64,0.07,0.09,1.12,1.13,1.15
6:7:42:52:1194910,3.56,-1.29,-143.94,0.09,-0.17,0.98,1.0,1.02
6:7:42:52:1195021,4.06,-1.0,-143.77,-0.14,0.03,1.01,1.02,1.05
6:7:42:52:1195101,3.48,-0.96,-144.12,-0.07,-0.01,1.03,1.03,1.02
6:7:42:52:1195212,2.56,-1.63,-144.22,-0.03,0.03,1.2,1.2,1.08
6:7:42:53:1195628,0.27,-0.71,-144.76,0.03,-0.12,1.24,1.25,1.16
6:7:42:53:1195723,0.23,-0.57,-144.8,-0.08,0.08,1.32,1.33,1.26
6:7:42:53:1195820,0.21,-0.63,-145.06,-0.04,-0.01,1.38,1.38,1.32
6:7:42:53:1195915,0.13,-0.8,-145.43,-0.19,0.25,1.26,1.3,1.33
6:7:42:53:1196011,0.03,-0.77,-145.68,0.03,0.01,1.38,1.39,1.35
6:7:42:53:1196154,-0.08,-0.63,-145.9,-0.05,0.04,1.2,1.2,1.29
6:7:42:53:1196234,-0.25,-0.57,-146.01,0.02,-0.09,1.26,1.26,1.28
6:7:42:54:1196676,-0.07,-0.13,-145.41,-0.11,0.09,1.12,1.12,1.19
6:7:42:54:1196710,-0.25,-0.04,-145.3,-0.11,0.09,1.09,1.1,1.16
6:7:42:54:1196805,-0.43,0.01,-145.17,0.12,-0.17,1.03,1.05,1.09
6:7:42:54:1196902,-0.27,-0.28,-145.08,-0.0,0.01,0.91,0.91,1.02
6:7:42:54:1197029,0.01,-0.46,-144.94,0.04,-0.03,0.91,0.91,0.95
6:7:42:54:1197126,0.23,-0.44,-144.8,-0.03,-0.01,0.93,0.93,0.91
6:7:42:54:1197251,0.39,-0.41,-144.6,0.13,-0.18,0.85,0.88,0.91
6:7:42:55:1197628,0.73,-0.45,-143.95,0.12,-0.18,0.85,0.88,0.9
6:7:42:55:1197723,0.13,-0.83,-143.74,-0.06,-0.03,0.92,0.92,0.89
6:7:42:55:1197820,-1.11,-1.61,-143.68,-0.15,0.22,0.94,0.98,0.93
6:7:42:55:1197915,-2.26,-2.19,-144.04,-0.03,-0.0,1.04,1.04,0.98
6:7:42:55:1198012,-2.71,-2.3,-144.51,-0.07,0.06,0.92,0.92,0.98
6:7:42:55:1198138,-2.79,-2.22,-144.39,0.1,-0.06,0.91,0.92,0.96
6:7:42:55:1198203,-2.46,-1.97,-144.19,0.03,-0.01,1.02,1.02,0.95
6:7:42:56:1198634,-0.79,-1.48,-143.57,-0.14,0.07,0.99,1.0,0.98
6:7:42:56:1198730,-0.6,-1.31,-143.54,-0.05,0.04,0.89,0.9,0.97
6:7:42:56:1198827,-0.3,-1.2,-143.46,-0.1,0.12,0.99,1.0,0.97
6:7:42:56:1198924,-0.05,-1.06,-143.26,0.04,-0.09,0.98,0.99,0.96
6:7:42:56:1199024,0.31,-0.97,-143.09,-0.09,0.11,1.08,1.09,1.02
6:7:42:56:1199115,1.0,-0.79,-142.85,0.07,-0.14,0.93,0.95,1.01
6:7:42:56:1199212,1.15,-0.53,-142.51,-0.17,0.13,1.01,1.03,1.02
6:7:42:57:1199635,0.15,-0.26,-141.8,0.13,-0.23,0.91,0.95,0.98
6:7:42:57:1199717,-0.37,-0.16,-141.73,-0.0,0.04,1.07,1.07,1.02
6:7:42:57:1199813,-0.57,-0.37,-141.65,-0.01,-0.08,0.93,0.93,0.99
6:7:42:57:1199909,-0.78,-0.62,-141.64,0.06,-0.01,1.0,1.0,1.0
6:7:42:57:1200020,-0.97,-0.78,-141.64,-0.11,-0.03,0.9,0.91,0.95
6:7:42:57:1200115,-0.97,-0.81,-141.67,0.09,-0.06,0.96,0.97,0.96
6:7:42:57:1200211,-0.94,-0.77,-141.66,-0.07,0.05,1.1,1.1,0.99
6:7:42:58:1200621,-0.93,-0.77,-141.74,0.04,-0.03,0.96,0.96,1.01
6:7:42:58:1200716,-1.07,-0.64,-141.79,-0.18,0.05,1.04,1.06,1.04
6:7:42:58:1200815,-1.05,-0.81,-141.8,-0.03,0.01,1.09,1.09,1.04
6:7:42:58:1200909,-1.05,-1.08,-141.76,-0.1,-0.03,1.21,1.21,1.12
6:7:42:58:1201022,-1.11,-1.31,-141.54,-0.1,0.02,1.21,1.21,1.17
6:7:42:58:1201117,-1.19,-1.58,-141.4,-0.03,-0.01,1.16,1.16,1.19
6:7:42:58:1201213,-1.28,-1.41,-141.2,-0.03,-0.04,1.19,1.19,1.18
6:7:42:59:1201612,-1.8,-0.74,-140.84,-0.02,-0.11,1.14,1.15,1.16
6:7:42:59:1201710,-1.64,-0.57,-140.88,-0.1,0.08,1.06,1.07,1.14
6:7:42:59:1201834,-1.45,-0.61,-140.91,-0.02,-0.03,1.03,1.03,1.08
6:7:42:59:1201931,-1.47,-0.71,-141.0,0.02,-0.13,1.08,1.09,1.06
6:7:42:59:1202026,-1.34,-0.87,-140.95,0.01,0.06,1.17,1.17,1.1
6:7:42:59:1202123,-1.51,-0.73,-140.97,-0.01,0.02,1.16,1.16,1.14
6:7:42:59:1202218,-1.63,-0.67,-141.01,0.1,-0.24,1.1,1.13,1.15
6:7:43:0:1202625,-1.86,-0.73,-141.18,0.04,-0.17,0.94,0.95,1.08
6:7:43:0:1202706,-1.91,-0.6,-141.19,-0.06,0.02,0.97,0.98,1.02
6:7:43:0:1202817,-1.87,-0.76,-141.14,-0.03,-0.09,0.97,0.97,0.97
6:7:43:0:1202929,-1.61,-0.82,-141.07,-0.11,0.08,1.0,1.01,0.99
6:7:43:0:1203009,-1.42,-0.88,-141.07,0.04,-0.23,0.94,0.97,0.99
6:7:43:0:1203106,-1.63,-0.79,-141.09,0.01,-0.03,0.93,0.93,0.97
6:7:43:0:1203217,-1.84,-0.75,-141.08,-0.05,-0.13,0.94,0.95,0.95
6:7:43:1:1203615,-2.18,-0.84,-141.1,0.09,-0.12,1.05,1.06,0.98
6:7:43:1:1203711,-2.11,-0.59,-141.08,0.03,0.0,1.07,1.07,1.03
6:7:43:1:1203837,-1.87,-0.58,-141.04,-0.02,0.07,0.99,0.99,1.04
6:7:43:1:1203902,-1.74,-0.68,-141.02,-0.14,-0.07,0.88,0.9,0.98
6:7:43:1:1204013,-1.68,-0.67,-141.09,0.13,-0.1,1.01,1.03,0.97
6:7:43:1:1204158,-1.66,-0.62,-141.14,-0.06,-0.01,0.96,0.97,0.96
6:7:43:1:1204222,-1.85,-0.53,-141.25,0.11,-0.26,0.86,0.91,0.97
6:7:43:2:1204701,-1.81,-0.48,-141.36,-0.04,-0.03,0.92,0.92,0.93
6:7:43:2:1204845,-1.87,-0.27,-141.31,0.06,-0.14,0.9,0.91,0.91
6:7:43:2:1204910,-1.79,-0.15,-141.46,0.05,-0.08,1.0,1.01,0.94
6:7:43:2:1205007,-1.89,-0.03,-141.43,0.08,-0.16,0.95,0.96,0.96
6:7:43:2:1205103,-1.99,0.11,-141.52,0.18,-0.1,1.05,1.07,1.01
6:7:43:2:1205231,-1.67,0.32,-141.59,-0.06,0.04,0.94,0.94,0.99
6:7:43:3:1205618,-1.1,-0.67,-141.58,-0.02,0.02,0.88,0.88,0.96
6:7:43:3:1205743,-1.49,-0.85,-141.8,-0.04,0.07,1.0,1.0,0.94
6:7:43:3:1205822,-1.59,-0.65,-141.92,0.06,-0.05,0.91,0.92,0.93
6:7:43:3:1205917,-1.66,-0.47,-141.74,0.02,0.01,1.01,1.01,0.98
6:7:43:3:1206013,-1.46,-0.43,-141.66,0.12,-0.12,1.0,1.01,0.98
6:7:43:3:1206126,-1.22,-0.21,-141.52,0.04,-0.11,1.0,1.01,1.01
6:7:43:3:1206223,-1.23,-0.18,-141.4,-0.06,-0.07,1.01,1.01,1.01
6:7:43:4:1206636,-1.43,-0.43,-141.43,-0.21,0.13,0.96,0.99,1.0
6:7:43:4:1206715,-1.33,-0.62,-141.46,0.11,-0.15,0.9,0.92,0.97
6:7:43:4:1206826,-1.43,-0.63,-141.58,0.06,-0.16,0.98,0.99,0.97
6:7:43:4:1206923,-1.17,-0.56,-141.84,0.02,-0.1,0.9,0.91,0.94
6:7:43:4:1207018,-0.95,-0.59,-141.83,0.01,-0.05,0.96,0.96,0.95
6:7:43:4:1207152,-0.98,-0.55,-141.92,0.04,0.02,0.91,0.91,0.93
6:7:43:4:1207213,-1.21,-0.28,-142.08,-0.12,0.15,1.01,1.03,0.97
6:7:43:5:1207613,-0.91,-0.53,-142.5,0.05,-0.08,0.95,0.95,0.97
6:7:43:5:1207709,-0.71,-0.68,-142.52,0.02,-0.03,1.05,1.05,1.01
6:7:43:5:1207851,-0.56,-0.75,-142.53,-0.09,0.03,0.89,0.9,0.97
6:7:43:5:1207915,-0.31,-0.56,-142.6,0.11,-0.05,0.94,0.95,0.97
6:7:43:5:1208026,1.28,-0.07,-142.92,-0.13,0.05,0.96,0.97,0.94
6:7:43:5:1208123,3.62,-0.32,-142.62,-0.03,-0.02,1.04,1.04,0.98
6:7:43:5:1208236,5.27,-0.92,-142.45,0.11,-0.11,1.04,1.05,1.02
6:7:43:6:1208715,3.09,-0.83,-143.88,0.06,-0.08,0.9,0.9,1.0
6:7:43:6:1208827,2.66,-0.61,-144.19,0.05,0.05,1.07,1.07,1.01
6:7:43:6:1208923,1.82,-0.28,-144.2,-0.11,-0.04,1.0,1.01,0.99
6:7:43:6:1209003,0.09,-0.47,-144.17,-0.19,0.08,0.96,0.98,1.02
6:7:43:6:1209113,-1.56,-0.65,-144.75,0.03,-0.11,0.92,0.93,0.97
6:7:43:6:1209243,-2.4,-0.77,-144.92,-0.03,-0.01,1.04,1.04,0.98
6:7:43:6:1209323,-2.47,-0.94,-144.84,0.14,-0.16,1.06,1.08,1.02
6:7:43:7:1209620,0.76,-4.76,-144.66,0.01,-0.02,0.98,0.98,1.03
6:7:43:7:1209712,1.35,-5.17,-144.71,0.05,-0.08,1.0,1.0,1.02
6:7:43:7:1209824,1.89,-5.64,-144.92,-0.03,0.01,1.02,1.03,1.0
6:7:43:7:1209904,2.09,-5.2,-145.05,0.05,-0.12,1.05,1.06,1.03
6:7:43:7:1210001,1.74,-4.08,-145.1,0.05,0.01,1.1,1.1,1.06
6:7:43:7:1210144,1.06,-2.77,-145.2,0.01,0.04,1.05,1.05,1.07
6:7:43:7:1210223,1.03,-2.39,-145.32,0.0,-0.08,1.05,1.05,1.07
6:7:43:8:1210815,0.51,-0.22,-145.2,-0.07,0.13,1.0,1.01,1.04
6:7:43:8:1210911,0.59,-0.05,-145.01,-0.11,0.03,0.99,1.0,1.02
6:7:43:8:1211024,0.83,-0.14,-144.83,-0.05,-0.01,0.97,0.97,0.99
6:7:43:8:1211120,1.04,-0.45,-144.72,-0.17,0.22,0.89,0.94,0.97
6:7:43:8:1211231,1.33,-0.82,-144.68,0.13,-0.02,1.03,1.04,0.98
6:7:43:8:1211343,1.47,-1.04,-144.6,-0.07,0.13,0.97,0.98,0.99
6:7:43:8:1211433,1.54,-1.08,-144.56,0.02,0.04,1.08,1.08,1.04
6:7:43:10:1212728,1.96,-1.36,-143.67,0.02,-0.04,0.95,0.95,1.01
6:7:43:10:1212824,2.05,-1.38,-143.97,0.12,-0.23,0.92,0.95,1.0
6:7:43:10:1212952,1.97,-1.32,-144.2,-0.1,0.14,1.04,1.06,0.99
6:7:43:10:1213016,1.84,-1.18,-144.37,0.02,-0.03,0.96,0.96,0.99
6:7:43:10:1213128,1.71,-1.09,-144.58,0.06,-0.06,0.94,0.94,0.99
6:7:43:10:1213226,1.76,-1.22,-144.69,-0.04,0.0,0.94,0.94,0.95
6:7:43:11:1213725,1.77,-1.11,-144.95,-0.19,0.19,0.97,1.01,0.96
6:7:43:11:1213806,1.84,-1.08,-144.96,0.18,-0.18,0.97,1.0,0.98
6:7:43:11:1213916,2.0,-1.15,-145.0,-0.14,0.13,0.95,0.97,0.99
6:7:43:11:1214045,1.99,-1.15,-145.05,-0.04,0.05,0.93,0.94,0.97
6:7:43:11:1214109,1.89,-1.2,-145.19,0.06,-0.03,0.98,0.98,0.96
6:7:43:11:1214237,1.9,-1.15,-145.26,0.07,-0.12,0.96,0.97,0.96
6:7:43:12:1214607,1.86,-1.63,-145.25,-0.07,0.08,0.98,0.99,0.98
6:7:43:12:1214731,2.08,-1.69,-145.14,0.04,-0.09,0.92,0.92,0.96
6:7:43:12:1214827,2.35,-1.9,-145.18,-0.11,0.14,0.96,0.98,0.96
6:7:43:12:1214908,2.3,-1.8,-145.35,-0.13,0.15,0.95,0.97,0.96
6:7:43:12:1215004,2.06,-1.51,-145.46,-0.2,0.18,0.94,0.98,0.97
6:7:43:12:1215131,2.07,-1.32,-145.53,-0.14,0.23,0.89,0.93,0.96
6:7:43:12:1215228,2.29,-1.3,-145.47,0.18,-0.11,1.02,1.04,0.98
6:7:43:13:1215612,2.49,-0.5,-144.64,-0.05,0.05,0.95,0.95,0.98
6:7:43:13:1215723,2.42,-0.48,-144.43,0.1,-0.16,0.85,0.87,0.95
6:7:43:13:1215803,2.61,-0.48,-144.18,0.1,-0.06,1.04,1.05,0.96
6:7:43:13:1215931,2.47,-0.37,-143.92,0.01,-0.01,1.11,1.11,1.01
6:7:43:13:1216028,2.35,-0.41,-143.65,0.08,0.06,0.97,0.97,1.04
6:7:43:13:1216107,2.14,-0.6,-143.55,0.01,0.01,1.03,1.03,1.04
6:7:43:13:1216219,2.06,-0.72,-143.45,0.01,-0.01,0.93,0.93,0.98
6:7:43:14:1216633,2.22,-0.8,-143.71,0.02,-0.0,0.95,0.95,0.97
6:7:43:14:1216713,2.29,-0.74,-143.92,0.13,-0.16,1.0,1.02,0.96
6:7:43:14:1216873,2.39,-0.85,-144.13,-0.15,0.19,0.96,0.99,0.98
6:7:43:14:1216920,2.54,-1.02,-144.26,-0.01,-0.01,0.94,0.94,0.98
6:7:43:14:1217034,2.4,-1.09,-144.28,0.05,0.09,0.92,0.93,0.95
6:7:43:14:1217115,2.07,-0.87,-144.26,-0.02,0.06,0.95,0.95,0.94
6:7:43:14:1217225,1.97,-0.88,-144.25,-0.02,-0.03,1.01,1.01,0.96
6:7:43:15:1217721,2.46,-1.3,-144.27,-0.12,0.04,0.96,0.97,0.98
6:7:43:15:1217801,2.62,-1.52,-144.43,0.0,0.07,0.93,0.93,0.97
6:7:43:15:1217913,2.62,-1.67,-144.58,-0.03,0.11,0.94,0.94,0.95
6:7:43:15:1218027,2.71,-1.62,-144.66,-0.06,-0.0,0.94,0.94,0.94
6:7:43:15:1218121,2.81,-1.56,-144.61,-0.04,0.07,1.02,1.03,0.97
6:7:43:15:1218234,3.2,-1.6,-144.43,-0.07,0.06,0.86,0.86,0.94
6:7:43:16:1218611,3.17,-2.0,-144.39,-0.12,0.09,1.01,1.02,0.97
6:7:43:16:1218722,3.24,-2.05,-144.35,-0.06,0.08,1.06,1.06,0.98
6:7:43:16:1218835,3.18,-1.89,-144.34,0.15,-0.14,1.01,1.03,1.04
6:7:43:16:1218934,3.18,-2.02,-144.22,-0.07,0.07,0.91,0.92,1.01
6:7:43:16:1219011,3.02,-2.11,-144.18,-0.21,0.26,0.91,0.97,0.97
6:7:43:16:1219106,3.05,-2.1,-144.19,-0.15,0.29,0.98,1.03,0.97
6:7:43:16:1219204,3.0,-1.91,-144.05,-0.01,0.01,0.91,0.91,0.97
6:7:43:17:1219719,3.3,-2.53,-143.82,0.11,-0.19,0.97,0.99,0.98
6:7:43:17:1219833,3.16,-2.66,-143.8,-0.13,0.15,1.03,1.05,0.98
6:7:43:17:1219943,2.99,-2.7,-143.75,-0.02,0.07,0.88,0.88,0.97
6:7:43:17:1220007,2.69,-2.51,-143.75,-0.14,0.18,0.9,0.93,0.95
6:7:43:17:1220151,2.71,-2.55,-143.75,-0.14,0.22,1.01,1.04,0.95
6:7:43:17:1220216,2.58,-2.5,-143.72,-0.04,0.13,0.98,0.99,0.99
6:7:43:18:1220725,2.51,-2.23,-143.74,-0.0,-0.02,0.93,0.93,0.99
6:7:43:18:1220821,2.61,-2.22,-143.69,-0.04,0.08,0.99,1.0,0.97
6:7:43:18:1220916,2.67,-2.32,-143.62,-0.07,0.12,1.1,1.11,1.01
6:7:43:18:1221013,2.39,-2.16,-143.64,-0.04,0.1,1.07,1.07,1.06
6:7:43:18:1221109,2.47,-2.43,-143.61,0.08,0.02,0.96,0.97,1.05
6:7:43:18:1221221,2.35,-2.78,-143.68,-0.02,0.0,0.94,0.94,0.99
6:7:43:19:1221615,2.04,-2.57,-143.48,0.03,0.03,1.06,1.06,0.99
6:7:43:19:1221726,1.85,-2.41,-143.5,-0.08,0.09,0.96,0.97,0.99
6:7:43:19:1221823,1.72,-2.61,-143.57,-0.06,0.12,0.99,1.0,1.01
6:7:43:19:1221934,1.63,-2.45,-143.68,-0.07,-0.01,0.85,0.85,0.94
6:7:43:19:1222030,1.54,-2.6,-143.63,-0.13,0.14,0.88,0.9,0.92
6:7:43:19:1222175,1.89,-2.72,-143.56,-0.11,0.16,0.94,0.96,0.9
6:7:43:19:1222287,1.66,-2.75,-143.49,-0.04,0.05,1.05,1.05,0.97
6:7:43:20:1222647,1.27,-3.03,-143.56,-0.09,-0.02,0.93,0.94,0.98
6:7:43:20:1222740,2.0,-2.77,-143.77,0.03,-0.09,0.89,0.89,0.96
6:7:43:20:1222836,3.25,-2.4,-143.62,-0.21,0.28,1.07,1.13,0.99
6:7:43:20:1222917,4.13,-2.16,-143.66,-0.1,0.04,1.02,1.03,1.02
6:7:43:20:1223029,4.62,-1.83,-143.48,-0.08,-0.03,1.02,1.02,1.06
6:7:43:20:1223140,4.9,-1.35,-143.38,-0.09,0.02,0.99,0.99,1.01
6:7:43:20:1223253,5.5,-1.01,-143.42,-0.02,-0.05,0.91,0.91,0.98
6:7:43:21:1223626,5.54,-1.21,-143.69,0.08,-0.12,0.87,0.88,0.93
6:7:43:21:1223753,4.57,-1.72,-143.94,0.04,-0.03,0.96,0.96,0.92
6:7:43:21:1223880,3.65,-2.06,-144.29,-0.04,0.02,0.93,0.93,0.92
6:7:43:21:1223961,3.46,-2.05,-144.45,-0.06,0.17,0.98,1.0,0.96
6:7:43:21:1224009,3.61,-2.31,-144.38,-0.02,0.09,0.98,0.98,0.97
