sysTime,roll,pitch,yaw,ax,ay,az,sqrt,average
6:10:10:57:30118,-91.99,-37.97,-121.56,-0.65,-0.77,-0.01,1.01,1.0
6:10:10:58:30214,-92.04,-37.83,-121.29,-0.64,-0.77,-0.01,1.0,1.01
6:10:10:58:30326,-91.89,-38.06,-121.19,-0.65,-0.76,-0.01,1.0,1.0
6:10:10:58:30422,-91.7,-38.2,-121.09,-0.65,-0.76,-0.01,1.0,1.0
6:10:10:58:30517,-91.74,-38.16,-120.9,-0.64,-0.77,-0.0,1.0,1.0
6:10:10:58:30613,-91.86,-38.18,-120.69,-0.64,-0.76,-0.01,1.0,1.0
6:10:10:58:30725,-91.93,-38.13,-120.41,-0.65,-0.77,-0.01,1.01,1.0
6:10:10:58:31120,-93.53,-38.34,-119.04,-0.66,-0.76,-0.05,1.0,1.01
6:10:10:59:31215,-94.5,-37.79,-118.55,-0.64,-0.78,-0.05,1.01,1.01
6:10:10:59:31327,-94.88,-37.54,-118.38,-0.63,-0.78,-0.05,1.01,1.01
6:10:10:59:31424,-95.04,-37.68,-118.3,-0.64,-0.77,-0.06,1.0,1.0
6:10:10:59:31519,-94.92,-37.85,-118.37,-0.67,-0.76,-0.07,1.02,1.0
6:10:10:59:31615,-94.49,-37.48,-118.21,-0.64,-0.77,-0.05,1.0,1.01
6:10:10:59:32124,-92.99,-34.93,-119.63,-0.57,-0.81,-0.01,0.99,1.0
6:10:11:0:32221,-92.34,-34.82,-119.95,-0.57,-0.84,-0.0,1.01,1.0
6:10:11:0:32317,-92.09,-34.98,-119.88,-0.59,-0.82,-0.03,1.01,1.01
6:10:11:0:32429,-92.27,-35.1,-119.53,-0.59,-0.8,-0.02,0.99,1.0
6:10:11:0:32509,-92.43,-34.89,-119.09,-0.58,-0.81,-0.04,1.0,1.0
6:10:11:0:32621,-92.76,-34.63,-118.75,-0.59,-0.81,-0.04,1.0,1.0
6:10:11:0:32715,-92.99,-34.43,-118.55,-0.58,-0.81,-0.04,1.0,1.0
6:10:11:0:33127,-93.32,-33.64,-120.51,-0.57,-0.83,-0.05,1.0,1.0
6:10:11:1:33207,-93.27,-33.79,-122.47,-0.61,-0.84,-0.08,1.04,1.01
6:10:11:1:33319,-92.83,-33.36,-124.95,-0.55,-0.82,-0.04,0.99,1.02
6:10:11:1:33415,-91.01,-32.28,-127.56,-0.51,-0.84,0.01,0.99,0.99
6:10:11:1:33511,-89.62,-30.9,-129.54,-0.48,-0.88,0.04,1.0,0.99
6:10:11:1:33622,-88.79,-30.04,-131.1,-0.49,-0.89,0.05,1.01,1.01
6:10:11:1:34124,-88.05,-29.86,-130.53,-0.51,-0.85,0.03,0.99,1.01
6:10:11:2:34220,-88.31,-30.03,-130.28,-0.52,-0.85,0.03,0.99,0.99
6:10:11:2:34316,-88.57,-30.28,-130.09,-0.52,-0.84,0.01,0.99,0.99
6:10:11:2:34428,-88.77,-30.41,-130.3,-0.52,-0.83,0.02,0.97,0.98
6:10:11:2:34525,-88.62,-30.33,-130.8,-0.52,-0.86,0.02,1.01,0.99
6:10:11:2:34620,-88.78,-30.25,-131.03,-0.5,-0.85,0.03,0.98,1.0
6:10:11:2:34721,-88.9,-30.41,-131.05,-0.51,-0.85,0.03,1.0,0.99
6:10:11:2:35107,-89.33,-30.2,-130.43,-0.51,-0.86,0.02,1.0,1.0
6:10:11:3:35203,-89.57,-30.01,-130.15,-0.5,-0.86,0.02,0.99,1.0
6:10:11:3:35315,-89.72,-29.82,-129.94,-0.51,-0.86,0.02,1.0,1.0
6:10:11:3:35411,-89.75,-29.81,-129.76,-0.5,-0.86,0.02,1.0,1.0
6:10:11:3:35522,-89.67,-29.76,-129.59,-0.51,-0.86,0.01,1.0,1.0
6:10:11:3:35619,-89.4,-29.76,-129.4,-0.5,-0.87,0.03,1.0,1.0
6:10:11:3:36119,-88.88,-31.09,-128.74,-0.53,-0.85,0.01,1.0,1.0
6:10:11:4:36214,-89.05,-31.45,-128.51,-0.52,-0.85,0.03,1.0,1.0
6:10:11:4:36326,-89.17,-31.72,-128.27,-0.53,-0.84,0.02,0.99,1.0
6:10:11:4:36422,-89.31,-31.57,-128.05,-0.53,-0.83,0.01,0.98,0.99
6:10:11:4:36533,-89.67,-31.19,-127.72,-0.53,-0.87,0.01,1.02,0.99
6:10:11:4:36630,-89.91,-31.16,-127.53,-0.52,-0.85,0.0,0.99,1.01
6:10:11:4:37111,-87.76,-31.75,-124.35,-0.65,-0.98,-0.02,1.17,1.05
6:10:11:5:37207,-87.82,-34.13,-124.38,-0.62,-0.9,0.01,1.09,1.15
6:10:11:5:37303,-89.46,-35.78,-124.52,-0.62,-0.77,0.01,0.99,1.06
6:10:11:5:37398,-90.75,-37.6,-123.95,-0.62,-0.83,-0.01,1.04,1.01
6:10:11:5:37527,-91.46,-39.97,-123.68,-0.67,-0.82,0.0,1.06,1.05
6:10:11:5:37606,-92.85,-42.35,-122.44,-0.69,-0.69,-0.04,0.98,1.03
6:10:11:5:38105,-95.24,-43.03,-118.55,-0.72,-0.71,-0.05,1.01,0.99
6:10:11:6:38200,-95.52,-43.69,-118.01,-0.69,-0.67,-0.06,0.96,0.99
6:10:11:6:38328,-94.81,-43.9,-117.56,-0.71,-0.7,-0.03,1.0,0.98
6:10:11:6:38424,-93.81,-43.65,-117.53,-0.71,-0.7,-0.05,1.0,1.0
6:10:11:6:38520,-93.35,-43.39,-117.65,-0.73,-0.7,-0.01,1.01,1.01
6:10:11:6:38617,-93.89,-43.27,-117.22,-0.72,-0.71,-0.05,1.01,1.01
6:10:11:6:39130,-102.3,-51.45,-110.93,-0.78,-0.61,-0.07,0.99,1.0
6:10:11:7:39226,-101.98,-50.8,-110.02,-0.81,-0.65,-0.14,1.05,1.01
6:10:11:7:39322,-102.62,-51.04,-108.47,-0.87,-0.65,-0.09,1.09,1.06
6:10:11:7:39418,-103.54,-52.54,-105.97,-0.85,-0.51,-0.08,0.99,1.06
6:10:11:7:39530,-102.27,-52.19,-104.14,-0.75,-0.5,-0.11,0.91,0.96
6:10:11:7:39626,-98.04,-50.4,-105.15,-0.76,-0.5,-0.16,0.93,0.91
6:10:11:7:40115,-84.45,-48.06,-111.73,-0.84,-0.66,0.11,1.08,0.98
6:10:11:8:40211,-87.88,-49.3,-108.2,-0.82,-0.58,0.12,1.01,1.05
6:10:11:8:40307,-91.58,-50.87,-104.73,-0.69,-0.52,0.01,0.86,0.96
6:10:11:8:40420,-93.57,-51.13,-102.65,-0.91,-0.57,-0.08,1.08,0.94
6:10:11:8:40515,-97.85,-52.01,-97.36,-0.75,-0.57,-0.05,0.94,1.03
6:10:11:8:40628,-98.45,-52.9,-95.2,-0.77,-0.58,-0.08,0.97,0.95
6:10:11:8:40750,-96.8,-52.65,-95.36,-0.89,-0.54,-0.14,1.05,0.99
6:10:11:8:41132,-99.45,-52.16,-85.49,-0.88,-0.57,-0.11,1.05,1.05
6:10:11:9:41228,-98.96,-51.19,-83.63,-0.91,-0.63,-0.08,1.11,1.07
6:10:11:9:41324,-97.92,-50.52,-82.22,-0.83,-0.58,-0.09,1.01,1.08
6:10:11:9:41405,-95.95,-51.41,-81.59,-0.83,-0.58,-0.11,1.01,1.01
6:10:11:9:41564,-94.54,-52.1,-81.33,-0.8,-0.53,-0.08,0.96,1.0
6:10:11:9:41644,-93.53,-52.39,-81.33,-0.86,-0.58,-0.08,1.04,0.99
6:10:11:9:42129,-104.81,-45.66,-75.27,-0.88,-0.74,-0.2,1.16,1.08
6:10:11:10:42209,-105.27,-44.79,-76.05,-0.83,-0.7,-0.2,1.1,1.14
6:10:11:10:42321,-104.66,-44.25,-77.04,-0.75,-0.61,-0.19,0.98,1.06
6:10:11:10:42417,-102.78,-43.77,-78.45,-0.65,-0.54,-0.13,0.85,0.94
6:10:11:10:42513,-100.58,-43.48,-81.36,-0.6,-0.59,-0.11,0.85,0.85
6:10:11:10:42609,-99.86,-43.34,-85.3,-0.6,-0.54,-0.06,0.81,0.84
6:10:11:10:42721,-99.76,-44.2,-89.87,-0.59,-0.5,-0.07,0.78,0.8
6:10:11:10:43119,-90.46,-48.47,-116.23,-0.75,-0.61,0.01,0.97,0.84
6:10:11:11:43216,-90.49,-48.06,-120.72,-0.76,-0.64,0.04,1.0,0.98
6:10:11:11:43327,-92.34,-46.16,-123.25,-0.67,-0.59,0.02,0.9,0.96
6:10:11:11:43408,-93.31,-45.21,-124.78,-0.72,-0.63,-0.01,0.95,0.92
6:10:11:11:43519,-92.27,-45.19,-125.87,-0.76,-0.69,-0.01,1.03,0.98
6:10:11:11:43615,-91.89,-44.74,-125.19,-0.77,-0.78,-0.02,1.09,1.05
6:10:11:11:44121,-97.34,-49.57,-111.06,-0.79,-0.64,-0.13,1.02,1.07
6:10:11:12:44217,-95.53,-50.52,-110.71,-0.84,-0.75,-0.09,1.13,1.06
6:10:11:12:44312,-93.41,-48.98,-111.0,-0.9,-0.81,-0.12,1.22,1.16
6:10:11:12:44408,-93.54,-47.21,-109.45,-0.67,-0.67,-0.09,0.96,1.13
6:10:11:12:44504,-93.89,-48.77,-107.3,-0.66,-0.61,-0.07,0.9,0.94
6:10:11:12:44632,-94.28,-49.37,-104.67,-0.69,-0.54,-0.02,0.87,0.89
6:10:11:12:44712,-93.19,-48.53,-101.51,-0.74,-0.7,-0.07,1.02,0.92
6:10:11:12:45128,-92.89,-46.12,-83.55,-0.77,-0.66,0.0,1.01,1.02
6:10:11:13:45208,-93.67,-46.36,-80.51,-0.74,-0.61,-0.01,0.96,1.0
6:10:11:13:45320,-94.04,-46.8,-78.42,-0.77,-0.59,-0.04,0.97,0.96
6:10:11:13:45400,-93.92,-48.52,-76.26,-0.76,-0.64,-0.03,1.0,0.98
6:10:11:13:45511,-94.07,-49.75,-74.19,-0.76,-0.67,-0.08,1.02,1.0
6:10:11:13:45608,-93.34,-49.74,-73.41,-0.83,-0.77,-0.14,1.14,1.06
6:10:11:13:45712,-95.39,-48.16,-71.38,-0.72,-0.7,-0.17,1.02,1.1
6:10:11:13:46128,-102.65,-49.75,-61.94,-0.89,-0.75,-0.11,1.17,1.07
6:10:11:14:46240,-105.23,-48.69,-58.38,-0.75,-0.69,-0.17,1.03,1.12
6:10:11:14:46320,-107.69,-48.23,-54.6,-0.72,-0.68,-0.15,1.0,1.02
6:10:11:14:46415,-109.33,-48.02,-52.34,-0.7,-0.59,-0.16,0.93,0.98
6:10:11:14:46511,-110.11,-48.44,-51.08,-0.71,-0.56,-0.15,0.92,0.93
6:10:11:14:46607,-109.42,-49.18,-51.38,-0.76,-0.56,-0.15,0.96,0.93
6:10:11:14:46704,-107.41,-51.22,-52.76,-0.85,-0.65,-0.19,1.09,1.0
6:10:11:14:47135,-106.42,-50.1,-55.02,-0.67,-0.55,-0.22,0.89,1.02
6:10:11:15:47216,-104.67,-49.66,-57.23,-0.72,-0.56,-0.21,0.94,0.91
6:10:11:15:47344,-103.49,-49.39,-58.89,-0.78,-0.65,-0.19,1.03,0.97
6:10:11:15:47439,-102.93,-49.83,-59.74,-0.8,-0.71,-0.18,1.09,1.05
6:10:11:15:47519,-104.37,-49.42,-57.85,-0.75,-0.75,-0.14,1.07,1.08
6:10:11:15:47616,-105.46,-47.08,-55.84,-0.64,-0.7,-0.16,0.96,1.03
6:10:11:15:47727,-104.98,-44.63,-55.92,-0.62,-0.6,-0.13,0.88,0.93
6:10:11:15:48122,-101.85,-51.59,-62.85,-0.78,-0.75,-0.14,1.09,0.95
6:10:11:16:48202,-99.88,-52.58,-66.56,-0.9,-0.73,-0.15,1.16,1.12
6:10:11:16:48330,-97.85,-52.85,-69.5,-0.69,-0.59,-0.12,0.91,1.08
6:10:11:16:48443,-94.46,-53.29,-72.94,-0.66,-0.49,-0.08,0.82,0.88
6:10:11:16:48522,-92.15,-52.44,-75.47,-0.8,-0.64,-0.08,1.03,0.89
6:10:11:16:48651,-92.9,-51.22,-75.26,-0.9,-0.79,-0.11,1.2,1.08
6:10:11:16:48713,-95.54,-50.91,-72.96,-0.78,-0.8,-0.02,1.12,1.18
6:10:11:16:49129,-90.81,-49.98,-77.65,-0.78,-0.65,0.01,1.01,1.08
6:10:11:17:49208,-88.73,-51.27,-80.49,-0.86,-0.84,-0.04,1.2,1.08
6:10:11:17:49337,-88.1,-50.96,-82.28,-0.76,-0.84,-0.02,1.13,1.18
6:10:11:17:49417,-88.32,-49.68,-83.56,-0.7,-0.61,0.0,0.93,1.06
6:10:11:17:49513,-88.34,-48.95,-84.53,-0.59,-0.54,-0.02,0.8,0.89
6:10:11:17:49625,-87.19,-49.38,-85.96,-0.74,-0.62,-0.02,0.97,0.86
6:10:11:17:49720,-87.13,-50.36,-85.62,-0.87,-0.89,-0.05,1.25,1.06
6:10:11:17:50104,-92.31,-49.6,-80.77,-0.73,-0.57,-0.03,0.93,1.14
6:10:11:18:50199,-90.67,-50.95,-81.97,-0.82,-0.71,0.0,1.08,0.98
6:10:11:18:50328,-89.26,-51.93,-83.59,-0.9,-0.83,-0.03,1.23,1.13
6:10:11:18:50440,-89.22,-50.6,-84.91,-0.76,-0.78,-0.04,1.09,1.18
6:10:11:18:50520,-88.7,-49.24,-85.94,-0.69,-0.59,-0.02,0.91,1.03
6:10:11:18:50615,-87.42,-48.18,-86.62,-0.57,-0.57,-0.02,0.81,0.87
6:10:11:18:50711,-85.28,-48.36,-88.16,-0.77,-0.71,0.02,1.05,0.89
6:10:11:18:51106,-82.03,-45.39,-88.97,-0.62,-0.53,0.08,0.82,0.98
6:10:11:19:51201,-80.25,-46.14,-89.96,-0.75,-0.59,0.14,0.97,0.87
6:10:11:19:51297,-78.63,-47.96,-90.53,-0.71,-0.79,0.1,1.07,1.0
6:10:11:19:51424,-76.76,-49.0,-92.76,-0.71,-0.79,0.16,1.08,1.07
6:10:11:19:51521,-73.66,-47.7,-96.65,-0.77,-0.65,0.1,1.02,1.06
6:10:11:19:51617,-70.59,-46.46,-98.3,-0.56,-0.67,0.09,0.88,0.97
6:10:11:19:51726,-66.75,-45.12,-100.1,-0.6,-0.71,0.19,0.95,0.9
6:10:11:19:52124,-60.18,-43.34,-105.34,-0.6,-0.47,0.26,0.81,0.9
6:10:11:20:52252,-60.92,-44.24,-106.37,-0.66,-0.57,0.32,0.93,0.85
6:10:11:20:52316,-62.14,-46.64,-107.1,-0.7,-0.66,0.32,1.01,0.96
6:10:11:20:52428,-63.91,-49.3,-108.17,-0.82,-0.84,0.32,1.22,1.08
6:10:11:20:52539,-66.43,-49.66,-109.22,-0.72,-0.7,0.26,1.04,1.16
6:10:11:20:52604,-69.27,-48.23,-109.48,-0.69,-0.61,0.16,0.94,1.01
6:10:11:20:52716,-70.93,-47.03,-109.82,-0.6,-0.58,0.14,0.85,0.91
6:10:11:20:53131,-68.46,-47.23,-110.21,-0.75,-0.56,0.22,0.96,0.88
6:10:11:21:53227,-70.27,-46.68,-107.32,-0.61,-0.51,0.25,0.84,0.92
6:10:11:21:53322,-70.83,-48.21,-105.97,-0.71,-0.57,0.29,0.96,0.88
6:10:11:21:53434,-69.71,-49.92,-107.11,-0.81,-0.73,0.2,1.1,1.0
6:10:11:21:53530,-68.89,-50.55,-108.58,-0.82,-0.71,0.2,1.11,1.1
6:10:11:21:53610,-68.99,-49.05,-109.51,-0.83,-0.62,0.13,1.04,1.08
6:10:11:21:53715,-70.1,-48.11,-108.71,-0.64,-0.52,0.14,0.84,0.97
6:10:11:21:54117,-71.65,-47.2,-103.74,-0.76,-0.69,0.21,1.05,0.91
6:10:11:22:54244,-72.49,-45.87,-102.14,-0.65,-0.53,0.25,0.88,0.99
6:10:11:22:54324,-71.2,-46.92,-102.49,-0.74,-0.57,0.21,0.95,0.9
6:10:11:22:54420,-68.73,-48.89,-104.2,-0.75,-0.59,0.25,0.99,0.96
6:10:11:22:54564,-65.7,-50.34,-107.43,-0.83,-0.65,0.22,1.07,1.02
6:10:11:22:54612,-63.48,-50.45,-110.78,-0.73,-0.61,0.3,1.0,1.05
6:10:11:22:54721,-62.46,-48.63,-114.63,-0.81,-0.63,0.18,1.05,1.01
6:10:11:22:55145,-60.18,-46.14,-120.54,-0.78,-0.78,0.4,1.17,1.09
6:10:11:23:55209,-58.95,-44.76,-120.06,-0.75,-0.69,0.38,1.09,1.14
6:10:11:23:55321,-59.37,-43.99,-118.89,-0.65,-0.66,0.34,0.99,1.05
6:10:11:23:55417,-61.3,-45.11,-117.14,-0.66,-0.5,0.34,0.89,0.96
6:10:11:23:55528,-63.94,-46.88,-114.84,-0.59,-0.59,0.3,0.89,0.89
6:10:11:23:55625,-64.12,-48.53,-115.46,-0.73,-0.76,0.22,1.08,0.95
6:10:11:23:55717,-61.43,-49.75,-118.4,-0.85,-0.68,0.3,1.13,1.09
6:10:11:23:56132,-60.73,-46.57,-116.69,-0.8,-0.61,0.3,1.05,1.1
6:10:11:24:56244,-64.74,-46.25,-112.18,-0.71,-0.63,0.32,1.0,1.03
6:10:11:24:56308,-66.36,-47.49,-110.03,-0.76,-0.68,0.21,1.04,1.01
6:10:11:24:56420,-67.86,-47.87,-108.0,-0.67,-0.63,0.26,0.95,1.01
6:10:11:24:56516,-67.81,-47.23,-108.47,-0.71,-0.61,0.21,0.96,0.95
6:10:11:24:56612,-66.4,-47.85,-110.91,-0.74,-0.65,0.29,1.02,0.98
6:10:11:24:56724,-64.39,-48.31,-115.53,-0.78,-0.59,0.28,1.02,1.02
6:10:11:24:57133,-51.05,-47.85,-140.11,-0.73,-0.47,0.42,0.97,1.0
6:10:11:25:57212,-46.87,-46.99,-147.19,-0.75,-0.55,0.41,1.02,0.98
6:10:11:25:57308,-46.07,-46.6,-151.75,-0.75,-0.5,0.46,1.01,1.02
6:10:11:25:57452,-48.0,-46.91,-152.98,-0.74,-0.45,0.47,0.98,1.0
6:10:11:25:57532,-51.36,-47.56,-152.1,-0.66,-0.42,0.43,0.89,0.95
6:10:11:25:57628,-53.86,-48.4,-151.54,-0.72,-0.52,0.44,0.99,0.93
6:10:11:25:58133,-54.3,-45.19,-145.26,-0.72,-0.46,0.44,0.96,0.98
6:10:11:26:58230,-54.58,-44.83,-142.52,-0.73,-0.44,0.41,0.95,0.96
6:10:11:26:58326,-54.96,-43.96,-138.93,-0.73,-0.5,0.43,0.98,0.96
6:10:11:26:58406,-54.04,-44.37,-136.72,-0.75,-0.49,0.44,1.0,0.99
6:10:11:26:58502,-51.95,-45.45,-136.68,-0.77,-0.54,0.45,1.05,1.01
6:10:11:26:58598,-51.24,-46.4,-136.6,-0.8,-0.48,0.42,1.03,1.04
6:10:11:26:58721,-50.93,-48.02,-136.21,-0.76,-0.39,0.46,0.97,1.01
6:10:11:26:59127,-50.45,-50.05,-129.57,-0.81,-0.46,0.41,1.02,0.99
6:10:11:27:59239,-49.37,-51.41,-130.1,-0.81,-0.37,0.44,1.0,1.01
6:10:11:27:59319,-49.05,-50.84,-129.94,-0.82,-0.4,0.46,1.02,1.0
6:10:11:27:59463,-48.2,-50.54,-131.45,-0.78,-0.36,0.44,0.97,1.0
6:10:11:27:59511,-46.25,-50.26,-134.97,-0.79,-0.37,0.47,0.99,0.98
6:10:11:27:59606,-43.89,-50.31,-139.39,-0.8,-0.43,0.47,1.02,1.0
6:10:11:27:60134,-46.81,-51.23,-160.97,-0.8,-0.37,0.4,0.96,1.0
6:10:11:28:60231,-47.73,-53.27,-163.87,-0.83,-0.38,0.42,1.01,0.98
6:10:11:28:60310,-48.62,-55.39,-166.2,-0.87,-0.37,0.42,1.04,1.02
6:10:11:28:60406,-50.51,-56.72,-167.01,-0.82,-0.3,0.43,0.97,1.02
6:10:11:28:60533,-52.09,-56.55,-166.33,-0.8,-0.34,0.43,0.97,0.97
6:10:11:28:60615,-53.67,-55.68,-164.27,-0.81,-0.38,0.41,0.99,0.98
6:10:11:28:60742,-54.25,-56.1,-162.55,-0.84,-0.33,0.39,0.99,0.99
6:10:11:28:61120,-52.82,-55.12,-152.03,-0.89,-0.33,0.37,1.02,1.0
6:10:11:29:61216,-53.46,-54.55,-148.36,-0.89,-0.34,0.35,1.01,1.02
6:10:11:29:61328,-53.97,-54.87,-145.54,-0.88,-0.32,0.34,1.0,1.01
6:10:11:29:61424,-56.21,-54.57,-141.05,-0.87,-0.34,0.31,0.98,0.99
6:10:11:29:61504,-58.33,-54.24,-136.92,-0.95,-0.38,0.29,1.07,1.01
6:10:11:29:61648,-59.96,-55.84,-133.55,-0.93,-0.33,0.28,1.03,1.05
6:10:11:29:62134,-50.78,-57.33,-126.08,-0.95,-0.38,0.34,1.07,1.04
6:10:11:30:62230,-48.64,-56.69,-123.47,-0.9,-0.45,0.38,1.08,1.08
6:10:11:30:62310,-47.58,-57.54,-120.72,-0.84,-0.38,0.37,1.0,1.05
6:10:11:30:62454,-46.41,-57.93,-117.84,-0.81,-0.44,0.39,1.0,1.0
6:10:11:30:62533,-45.77,-57.37,-115.11,-0.82,-0.37,0.38,0.98,0.99
6:10:11:30:62630,-45.59,-56.36,-112.02,-0.8,-0.38,0.39,0.97,0.98
6:10:11:30:62726,-44.75,-55.59,-110.29,-0.79,-0.42,0.39,0.98,0.97
6:10:11:30:63113,-37.83,-53.22,-107.25,-0.85,-0.37,0.43,1.02,0.99
6:10:11:31:63225,-36.33,-54.15,-105.83,-0.84,-0.39,0.46,1.03,1.02
6:10:11:31:63305,-35.95,-55.49,-104.15,-0.83,-0.37,0.45,1.01,1.02
6:10:11:31:63417,-35.68,-57.16,-102.64,-0.82,-0.32,0.42,0.97,1.0
6:10:11:31:63528,-35.61,-58.27,-100.84,-0.81,-0.3,0.43,0.97,0.97
6:10:11:31:63624,-36.06,-58.7,-98.9,-0.85,-0.33,0.41,1.0,0.98
6:10:11:31:64114,-35.59,-58.88,-98.14,-0.82,-0.33,0.46,1.0,1.0
6:10:11:32:64225,-35.1,-58.43,-99.11,-0.81,-0.36,0.47,1.0,1.0
6:10:11:32:64321,-35.13,-58.23,-100.24,-0.86,-0.31,0.49,1.04,1.01
6:10:11:32:64418,-34.92,-58.43,-102.14,-0.82,-0.34,0.46,1.0,1.02
6:10:11:32:64514,-34.92,-58.6,-103.83,-0.81,-0.35,0.47,1.0,1.0
6:10:11:32:64625,-35.31,-58.46,-105.11,-0.8,-0.36,0.47,0.99,1.0
6:10:11:32:64720,-35.66,-58.09,-106.47,-0.81,-0.36,0.46,1.0,1.0
6:10:11:32:65114,-36.33,-56.52,-110.08,-0.82,-0.38,0.47,1.02,1.0
6:10:11:33:65210,-36.26,-56.27,-110.75,-0.8,-0.37,0.47,1.0,1.01
6:10:11:33:65306,-35.96,-56.22,-111.28,-0.8,-0.37,0.47,1.0,1.0
6:10:11:33:65449,-35.82,-56.32,-111.35,-0.81,-0.36,0.47,1.01,1.0
6:10:11:33:65514,-36.08,-56.55,-110.63,-0.81,-0.36,0.46,1.0,1.0
6:10:11:33:65626,-36.31,-56.94,-109.94,-0.82,-0.35,0.45,1.0,1.0
6:10:11:33:66116,-37.14,-57.81,-104.82,-0.84,-0.33,0.44,1.01,1.0
6:10:11:34:66212,-36.82,-58.18,-104.32,-0.83,-0.33,0.43,0.99,1.0
6:10:11:34:66323,-36.8,-58.36,-103.89,-0.83,-0.34,0.42,0.99,0.99
6:10:11:34:66419,-36.75,-58.48,-103.9,-0.83,-0.34,0.43,1.0,0.99
6:10:11:34:66531,-36.64,-58.57,-104.14,-0.84,-0.35,0.45,1.01,1.0
6:10:11:34:66611,-36.77,-58.82,-104.37,-0.85,-0.34,0.43,1.01,1.01
6:10:11:34:66739,-37.38,-59.08,-104.34,-0.83,-0.35,0.43,1.0,1.01
6:10:11:34:67116,-39.12,-59.6,-105.21,-0.82,-0.37,0.43,1.0,1.0
6:10:11:35:67212,-39.3,-59.46,-104.97,-0.84,-0.33,0.42,0.99,0.99
6:10:11:35:67307,-39.37,-59.26,-104.25,-0.82,-0.35,0.42,0.98,0.99
6:10:11:35:67403,-39.97,-58.86,-102.74,-0.8,-0.36,0.42,0.97,0.98
6:10:11:35:67515,-40.18,-58.38,-101.43,-0.84,-0.37,0.42,1.01,0.99
6:10:11:35:67611,-40.18,-58.05,-99.64,-0.83,-0.39,0.44,1.01,1.01
6:10:11:35:68119,-41.93,-58.11,-86.39,-0.83,-0.36,0.42,0.99,1.01
6:10:11:36:68216,-41.37,-58.4,-85.0,-0.86,-0.36,0.41,1.02,1.0
6:10:11:36:68327,-41.86,-58.94,-83.02,-0.82,-0.39,0.4,0.99,1.01
6:10:11:36:68424,-42.18,-59.6,-82.15,-0.82,-0.36,0.4,0.98,0.99
6:10:11:36:68520,-42.57,-60.11,-81.88,-0.83,-0.38,0.4,0.99,0.98
6:10:11:36:68616,-42.9,-60.39,-82.16,-0.84,-0.37,0.41,1.0,1.0
6:10:11:36:68728,-43.39,-60.53,-82.67,-0.82,-0.38,0.42,1.0,1.0
6:10:11:36:69150,-43.81,-60.25,-85.65,-0.81,-0.4,0.43,1.0,1.0
6:10:11:37:69230,-44.03,-59.52,-86.18,-0.84,-0.37,0.4,1.0,1.0
6:10:11:37:69310,-43.15,-59.46,-87.38,-0.83,-0.39,0.42,1.0,1.0
6:10:11:37:69422,-42.92,-59.3,-88.2,-0.82,-0.39,0.4,0.99,1.0
6:10:11:37:69518,-43.06,-59.27,-88.93,-0.81,-0.38,0.41,0.99,0.99
6:10:11:37:69629,-43.13,-59.26,-89.65,-0.8,-0.38,0.41,0.98,0.98
6:10:11:37:70111,-42.91,-59.09,-92.27,-0.83,-0.38,0.4,1.0,0.98
6:10:11:38:70238,-42.42,-59.1,-92.92,-0.83,-0.38,0.4,0.99,1.0
6:10:11:38:70334,-42.4,-58.94,-93.3,-0.84,-0.38,0.4,1.0,1.0
6:10:11:38:70414,-42.25,-58.92,-94.01,-0.83,-0.37,0.4,1.0,1.0
6:10:11:38:70526,-42.45,-58.78,-94.39,-0.83,-0.38,0.4,1.0,1.0
6:10:11:38:70622,-42.57,-58.65,-94.76,-0.82,-0.38,0.41,0.99,1.0
6:10:11:38:70718,-42.04,-58.5,-95.78,-0.85,-0.37,0.41,1.01,1.0
6:10:11:38:71105,-41.93,-58.66,-98.68,-0.82,-0.37,0.39,0.98,1.0
6:10:11:39:71234,-41.98,-58.15,-99.29,-0.85,-0.35,0.4,1.0,0.99
6:10:11:39:71313,-41.68,-58.22,-99.79,-0.86,-0.37,0.41,1.02,1.01
6:10:11:39:71426,-41.95,-58.41,-99.81,-0.85,-0.35,0.41,1.0,1.01
6:10:11:39:71521,-42.41,-59.05,-99.89,-0.83,-0.35,0.38,0.98,0.99
6:10:11:39:71617,-42.31,-59.43,-100.48,-0.86,-0.35,0.38,1.0,0.99
6:10:11:39:72133,-41.66,-57.67,-103.93,-0.83,-0.36,0.41,0.99,1.0
6:10:11:40:72213,-41.45,-57.49,-104.61,-0.81,-0.31,0.39,0.95,0.98
6:10:11:40:72309,-41.27,-55.94,-105.85,-0.76,-0.21,0.34,0.86,0.92
6:10:11:40:72405,-39.16,-54.27,-109.77,-0.76,-0.2,0.31,0.85,0.85
6:10:11:40:72517,-36.25,-52.43,-115.18,-0.65,-0.18,0.3,0.74,0.81
6:10:11:40:72612,-33.11,-48.54,-121.23,-0.63,-0.31,0.31,0.76,0.75
6:10:11:40:72718,-28.54,-44.79,-128.58,-0.74,-0.43,0.43,0.96,0.83
6:10:11:40:73098,-20.98,-38.53,-146.35,-0.6,-0.36,0.9,1.14,1.02
6:10:11:41:73226,-20.57,-36.36,-146.71,-0.56,-0.37,0.93,1.14,1.14
6:10:11:41:73322,-19.52,-32.6,-146.25,-0.59,-0.37,0.93,1.16,1.15
6:10:11:41:73418,-18.63,-30.14,-145.96,-0.56,-0.32,0.94,1.14,1.15
6:10:11:41:73514,-18.5,-29.33,-145.45,-0.53,-0.23,0.9,1.08,1.12
6:10:11:41:73625,-18.47,-29.06,-143.75,-0.53,-0.27,0.94,1.11,1.09
6:10:11:41:73737,-18.63,-29.18,-142.12,-0.55,-0.3,0.86,1.07,1.09
6:10:11:41:74116,-18.79,-32.61,-141.55,-0.56,-0.26,0.78,0.99,1.04
6:10:11:42:74212,-19.38,-32.65,-140.8,-0.53,-0.26,0.77,0.97,0.99
6:10:11:42:74324,-19.9,-31.93,-140.04,-0.57,-0.26,0.81,1.03,0.99
6:10:11:42:74420,-20.06,-31.83,-139.65,-0.6,-0.28,0.82,1.05,1.04
6:10:11:42:74499,-20.53,-32.42,-138.99,-0.57,-0.26,0.8,1.01,1.04
6:10:11:42:74627,-20.56,-33.31,-138.84,-0.56,-0.27,0.8,1.01,1.01
6:10:11:42:74729,-20.29,-34.01,-139.23,-0.57,-0.25,0.81,1.02,1.02
6:10:11:42:75118,-14.93,-29.15,-142.33,-0.46,-0.28,0.75,0.92,0.99
6:10:11:43:75230,-14.05,-27.27,-141.91,-0.39,-0.28,0.67,0.82,0.89
6:10:11:43:75310,-15.4,-25.85,-140.97,-0.4,-0.22,0.72,0.85,0.83
6:10:11:43:75420,-17.13,-24.98,-140.83,-0.41,-0.21,0.81,0.94,0.88
6:10:11:43:75517,-17.84,-24.55,-142.21,-0.45,-0.16,0.84,0.96,0.94
6:10:11:43:75613,-16.54,-24.61,-143.95,-0.41,-0.23,0.91,1.03,0.99
6:10:11:43:76110,-12.98,-23.52,-140.22,-0.41,-0.2,0.84,0.96,1.0
6:10:11:44:76222,-11.99,-23.76,-139.14,-0.44,-0.19,0.84,0.97,0.96
6:10:11:44:76318,-11.9,-23.26,-138.14,-0.39,-0.2,0.86,0.97,0.97
6:10:11:44:76414,-12.77,-22.18,-136.79,-0.37,-0.16,0.88,0.97,0.97
6:10:11:44:76525,-14.0,-21.42,-135.49,-0.35,-0.28,0.89,1.0,0.98
6:10:11:44:76622,-16.08,-21.31,-133.87,-0.36,-0.23,0.89,0.99,0.99
6:10:11:44:77127,-19.63,-14.22,-130.59,-0.21,-0.35,0.91,1.0,0.99
6:10:11:45:77223,-19.03,-12.85,-130.95,-0.22,-0.3,0.92,0.99,1.0
6:10:11:45:77336,-18.2,-10.75,-131.5,-0.17,-0.33,0.9,0.97,0.98
6:10:11:45:77415,-17.71,-8.73,-131.93,-0.16,-0.3,0.88,0.94,0.96
6:10:11:45:77527,-16.92,-7.55,-132.35,-0.13,-0.31,0.93,0.99,0.96
6:10:11:45:77623,-15.83,-8.1,-132.99,-0.23,-0.29,0.89,0.97,0.98
6:10:11:45:78113,-21.87,-11.61,-129.33,-0.23,-0.39,0.9,1.01,0.98
6:10:11:46:78209,-21.37,-13.26,-129.74,-0.18,-0.42,0.91,1.02,1.01
6:10:11:46:78305,-22.03,-14.82,-130.55,-0.26,-0.36,0.85,0.95,1.0
6:10:11:46:78401,-24.02,-17.08,-131.3,-0.28,-0.41,0.85,0.98,0.96
6:10:11:46:78513,-26.07,-18.93,-131.7,-0.3,-0.37,0.83,0.96,0.98
6:10:11:46:78624,-27.54,-19.8,-131.01,-0.34,-0.38,0.78,0.94,0.95
6:10:11:46:79134,-29.69,-14.68,-115.01,-0.22,-0.48,0.83,0.99,0.95
6:10:11:47:79214,-28.27,-13.68,-113.16,-0.2,-0.51,0.82,0.99,0.99
6:10:11:47:79326,-27.96,-12.78,-112.68,-0.18,-0.55,0.82,1.0,0.99
6:10:11:47:79422,-27.86,-12.26,-113.66,-0.19,-0.5,0.85,1.0,1.0
6:10:11:47:79518,-27.67,-12.72,-115.01,-0.25,-0.47,0.87,1.02,1.01
6:10:11:47:79613,-27.76,-14.29,-115.75,-0.17,-0.41,0.76,0.88,0.97
6:10:11:47:80110,-22.46,-12.9,-120.33,-0.22,-0.4,0.88,0.99,0.92
6:10:11:48:80205,-21.77,-13.17,-120.99,-0.18,-0.37,0.88,0.97,0.98
6:10:11:48:80318,-20.92,-13.08,-121.67,-0.21,-0.35,0.87,0.96,0.97
6:10:11:48:80413,-20.65,-12.87,-121.88,-0.19,-0.33,0.87,0.95,0.96
6:10:11:48:80525,-21.4,-12.79,-122.05,-0.2,-0.39,0.88,0.98,0.96
6:10:11:48:80621,-22.67,-12.88,-121.59,-0.18,-0.38,0.89,0.98,0.98
6:10:11:48:81108,-23.69,-11.2,-121.19,-0.19,-0.41,0.87,0.98,0.98
6:10:11:49:81251,-24.57,-11.09,-121.33,-0.16,-0.41,0.87,0.98,0.98
6:10:11:49:81300,-25.0,-10.85,-121.76,-0.16,-0.4,0.88,0.98,0.98
6:10:11:49:81411,-24.9,-10.43,-122.41,-0.17,-0.4,0.88,0.98,0.98
6:10:11:49:81539,-24.4,-10.1,-122.91,-0.17,-0.4,0.88,0.98,0.98
6:10:11:49:81603,-24.0,-9.82,-123.15,-0.17,-0.41,0.87,0.98,0.98
6:10:11:49:82113,-25.12,-10.11,-123.75,-0.16,-0.42,0.86,0.97,0.97
6:10:11:50:82209,-25.56,-10.48,-123.61,-0.14,-0.42,0.86,0.97,0.97
6:10:11:50:82305,-25.8,-10.35,-123.69,-0.17,-0.42,0.87,0.98,0.97
6:10:11:50:82417,-25.74,-10.59,-123.97,-0.17,-0.42,0.86,0.97,0.98
6:10:11:50:82513,-25.74,-10.79,-123.86,-0.16,-0.45,0.86,0.98,0.98
6:10:11:50:82625,-25.96,-10.73,-123.92,-0.19,-0.42,0.85,0.97,0.98
6:10:11:50:83109,-26.39,-11.5,-124.21,-0.19,-0.42,0.85,0.97,0.97
6:10:11:51:83221,-26.33,-11.41,-124.37,-0.18,-0.42,0.85,0.97,0.97
6:10:11:51:83317,-26.28,-11.19,-124.44,-0.18,-0.42,0.85,0.97,0.97
6:10:11:51:83413,-26.23,-10.96,-124.38,-0.17,-0.45,0.87,1.0,0.98
6:10:11:51:83509,-26.24,-11.01,-124.49,-0.19,-0.44,0.86,0.99,0.99
6:10:11:51:83637,-26.31,-10.99,-124.36,-0.18,-0.43,0.85,0.97,0.98
6:10:11:51:84101,-26.31,-10.56,-125.0,-0.16,-0.45,0.88,1.0,0.98
6:10:11:52:84230,-26.27,-10.54,-125.14,-0.19,-0.42,0.86,0.98,0.99
6:10:11:52:84310,-26.12,-10.56,-125.19,-0.17,-0.41,0.85,0.96,0.97
6:10:11:52:84407,-26.22,-10.49,-125.24,-0.18,-0.42,0.86,0.97,0.96
6:10:11:52:84503,-26.48,-10.54,-125.12,-0.17,-0.44,0.87,0.99,0.98
6:10:11:52:84630,-26.57,-10.63,-125.17,-0.18,-0.44,0.86,0.98,0.99
6:10:11:52:85111,-26.07,-9.93,-125.29,-0.17,-0.42,0.86,0.97,0.98
6:10:11:53:85207,-26.18,-10.24,-125.15,-0.15,-0.44,0.87,0.98,0.98
6:10:11:53:85319,-26.32,-10.41,-125.16,-0.18,-0.42,0.86,0.97,0.98
6:10:11:53:85415,-26.42,-10.52,-125.09,-0.16,-0.43,0.85,0.97,0.97
6:10:11:53:85511,-26.45,-10.47,-125.39,-0.18,-0.43,0.85,0.97,0.97
6:10:11:53:85623,-26.12,-10.35,-125.6,-0.16,-0.43,0.87,0.99,0.97
6:10:11:53:85719,-25.86,-10.16,-125.71,-0.17,-0.43,0.86,0.98,0.98
6:10:11:53:86120,-26.15,-9.84,-125.78,-0.17,-0.42,0.86,0.97,0.98
6:10:11:54:86216,-26.04,-9.66,-125.7,-0.17,-0.43,0.86,0.98,0.97
6:10:11:54:86328,-26.1,-9.5,-125.65,-0.16,-0.44,0.85,0.96,0.97
6:10:11:54:86440,-26.25,-9.33,-125.62,-0.16,-0.42,0.86,0.97,0.97
6:10:11:54:86504,-26.23,-9.19,-125.56,-0.14,-0.43,0.88,0.99,0.98
6:10:11:54:86599,-26.16,-9.11,-125.71,-0.16,-0.44,0.86,0.98,0.98
6:10:11:54:87109,-27.42,-9.69,-125.66,-0.16,-0.45,0.85,0.97,0.98
6:10:11:55:87223,-27.75,-9.54,-125.53,-0.16,-0.45,0.86,0.98,0.97
6:10:11:55:87318,-28.08,-9.49,-125.54,-0.16,-0.46,0.84,0.97,0.98
6:10:11:55:87446,-28.18,-9.48,-125.6,-0.15,-0.46,0.84,0.97,0.97
6:10:11:55:87526,-28.23,-9.41,-125.64,-0.16,-0.46,0.84,0.97,0.97
6:10:11:55:87622,-28.39,-9.44,-125.65,-0.15,-0.46,0.85,0.98,0.97
6:10:11:55:88120,-29.73,-10.19,-124.5,-0.18,-0.49,0.83,0.98,0.98
6:10:11:56:88217,-29.9,-10.41,-124.27,-0.18,-0.48,0.82,0.97,0.98
6:10:11:56:88313,-30.02,-10.69,-124.21,-0.17,-0.48,0.84,0.98,0.97
6:10:11:56:88424,-30.24,-11.05,-124.04,-0.17,-0.5,0.82,0.98,0.98
6:10:11:56:88521,-30.67,-11.07,-123.82,-0.19,-0.49,0.81,0.97,0.97
6:10:11:56:88633,-30.89,-11.33,-123.74,-0.17,-0.47,0.82,0.96,0.97
6:10:11:56:89099,-31.41,-11.32,-123.84,-0.19,-0.5,0.81,0.97,0.96
6:10:11:57:89210,-31.67,-11.35,-123.94,-0.19,-0.49,0.81,0.97,0.97
6:10:11:57:89307,-31.65,-11.39,-124.03,-0.16,-0.53,0.82,0.99,0.97
6:10:11:57:89419,-31.64,-11.16,-124.06,-0.17,-0.53,0.82,0.99,0.99
6:10:11:57:89515,-31.74,-10.99,-124.09,-0.19,-0.5,0.81,0.97,0.98
6:10:11:57:89611,-31.67,-10.95,-124.26,-0.18,-0.5,0.82,0.98,0.97
6:10:11:57:90119,-31.77,-10.87,-124.23,-0.18,-0.51,0.81,0.97,0.98
6:10:11:58:90215,-31.91,-10.97,-124.15,-0.18,-0.51,0.8,0.97,0.97
6:10:11:58:90310,-32.07,-11.05,-124.13,-0.17,-0.51,0.81,0.97,0.97
6:10:11:58:90422,-32.05,-10.98,-124.27,-0.18,-0.51,0.82,0.98,0.98
6:10:11:58:90518,-31.85,-10.97,-124.3,-0.19,-0.51,0.82,0.98,0.98
6:10:11:58:90614,-32.03,-10.92,-124.18,-0.18,-0.51,0.81,0.98,0.98
6:10:11:58:91110,-31.92,-10.52,-124.45,-0.21,-0.49,0.82,0.98,0.98
6:10:11:59:91221,-31.55,-10.81,-124.5,-0.16,-0.52,0.82,0.98,0.98
6:10:11:59:91318,-31.47,-10.9,-124.6,-0.21,-0.5,0.8,0.97,0.98
6:10:11:59:91413,-31.33,-11.1,-124.23,-0.19,-0.48,0.82,0.97,0.97
6:10:11:59:91542,-30.94,-10.95,-123.72,-0.16,-0.51,0.83,0.98,0.97
6:10:11:59:91621,-30.14,-10.55,-123.87,-0.15,-0.52,0.83,0.99,0.99
6:10:11:59:92101,-28.15,-8.14,-125.69,-0.15,-0.44,0.84,0.96,0.98
6:10:12:0:92213,-27.52,-7.65,-125.97,-0.12,-0.48,0.85,0.98,0.97
6:10:12:0:92325,-27.51,-7.41,-125.96,-0.1,-0.47,0.84,0.96,0.97
6:10:12:0:92405,-27.73,-6.99,-125.94,-0.1,-0.44,0.86,0.97,0.97
6:10:12:0:92517,-27.81,-6.63,-125.96,-0.12,-0.45,0.86,0.97,0.97
6:10:12:0:92628,-27.59,-6.33,-125.88,-0.11,-0.44,0.86,0.97,0.97
6:10:12:0:93109,-24.69,-4.55,-126.33,-0.07,-0.39,0.89,0.97,0.97
6:10:12:1:93237,-23.54,-4.1,-126.25,-0.09,-0.35,0.88,0.95,0.97
6:10:12:1:93317,-21.97,-3.76,-126.13,-0.1,-0.34,0.9,0.97,0.96
6:10:12:1:93413,-19.94,-3.71,-126.02,-0.07,-0.33,0.93,0.99,0.97
6:10:12:1:93509,-17.63,-4.06,-126.1,-0.05,-0.31,0.88,0.94,0.97
6:10:12:1:93620,-15.4,-3.96,-126.15,-0.08,-0.3,0.96,1.01,0.96
6:10:12:1:94118,-12.03,-1.79,-128.65,-0.02,-0.23,0.95,0.98,1.0
6:10:12:2:94214,-10.81,-1.91,-128.66,-0.01,-0.2,0.93,0.96,0.97
6:10:12:2:94327,-9.7,-1.61,-129.08,0.02,-0.18,0.94,0.96,0.96
6:10:12:2:94438,-9.14,-1.27,-129.69,-0.04,-0.18,0.92,0.94,0.96
6:10:12:2:94518,-9.68,-1.1,-129.84,-0.02,-0.18,0.96,0.97,0.95
6:10:12:2:94614,-10.69,-1.37,-129.83,0.03,-0.23,0.96,0.99,0.98
6:10:12:2:95128,-12.45,-1.19,-129.76,-0.05,-0.21,0.91,0.94,0.97
6:10:12:3:95240,-12.48,-1.14,-129.64,-0.04,-0.21,0.96,0.98,0.95
6:10:12:3:95304,-12.21,-1.16,-129.74,0.0,-0.22,0.99,1.01,0.99
6:10:12:3:95416,-11.48,-0.54,-129.52,-0.02,-0.17,1.01,1.02,1.01
6:10:12:3:95513,-10.61,0.49,-129.82,-0.02,-0.14,1.0,1.01,1.02
6:10:12:3:95640,-9.82,0.92,-129.73,-0.03,-0.21,0.97,0.99,1.0
6:10:12:3:96115,-7.63,0.54,-130.85,0.03,-0.15,0.96,0.98,0.99
6:10:12:4:96210,-6.81,1.04,-130.97,-0.04,-0.1,0.9,0.91,0.95
6:10:12:4:96322,-6.18,1.16,-130.5,0.01,-0.13,0.99,1.0,0.94
6:10:12:4:96435,-5.84,1.31,-130.29,0.06,-0.11,0.9,0.91,0.97
6:10:12:4:96515,-5.68,1.58,-130.56,0.09,-0.06,0.94,0.95,0.92
6:10:12:4:96627,-5.26,1.74,-130.71,-0.12,-0.03,0.98,0.99,0.96
6:10:12:4:97111,-3.07,1.65,-129.49,-0.13,0.11,0.98,0.99,0.99
6:10:12:5:97208,-1.94,1.86,-129.46,0.05,-0.14,0.87,0.88,0.96
6:10:12:5:97319,-0.77,1.9,-129.53,-0.13,0.03,1.0,1.01,0.92
6:10:12:5:97416,0.27,1.62,-130.18,-0.08,0.09,0.97,0.97,1.0
6:10:12:5:97527,0.93,1.44,-131.49,-0.01,0.0,0.93,0.94,0.96
6:10:12:5:97624,1.95,0.34,-132.03,0.16,-0.12,0.93,0.95,0.94
6:10:12:5:98142,0.89,-0.65,-131.85,-0.11,-0.02,1.15,1.16,1.02
6:10:12:6:98221,0.66,-0.91,-131.48,-0.03,-0.01,1.02,1.02,1.11
6:10:12:6:98317,1.13,-2.25,-131.06,0.06,0.06,1.28,1.28,1.11
6:10:12:6:98445,2.12,-2.94,-130.18,-0.05,-0.13,1.13,1.13,1.23
6:10:12:6:98525,1.99,-2.81,-129.4,0.04,-0.09,1.4,1.4,1.22
6:10:12:6:98636,1.37,-2.17,-128.48,-0.03,0.14,1.42,1.43,1.41
6:10:12:6:99132,-0.36,-1.42,-125.29,0.06,0.08,1.22,1.22,1.36
6:10:12:7:99228,-0.39,-1.2,-124.68,-0.01,0.1,1.22,1.22,1.22
6:10:12:7:99308,-0.4,-0.93,-124.92,0.04,-0.37,1.29,1.34,1.26
6:10:12:7:99420,-0.5,-0.77,-124.83,0.11,0.19,1.34,1.36,1.35
6:10:12:7:99500,-0.56,-0.54,-124.71,-0.16,-0.06,1.12,1.13,1.28
6:10:12:7:99611,-0.53,-0.59,-125.26,0.0,-0.29,1.16,1.2,1.15
6:10:12:7:99724,-0.42,-0.21,-125.12,-0.02,0.27,1.35,1.37,1.26
6:10:12:7:100128,-0.4,-0.69,-127.67,-0.09,-0.41,1.2,1.27,1.34
6:10:12:8:100223,-1.18,-2.8,-127.61,0.06,0.2,1.25,1.27,1.27
6:10:12:8:100320,-2.2,-5.28,-126.98,-0.09,-0.09,0.77,0.78,1.11
6:10:12:8:100416,-2.83,-6.89,-127.25,0.13,-0.18,0.9,0.93,0.83
6:10:12:8:100511,-3.24,-6.38,-126.42,0.14,0.11,0.91,0.92,0.93
6:10:12:8:100623,-2.28,-4.73,-126.2,-0.01,-0.31,0.9,0.95,0.93
6:10:12:8:100704,-1.19,-2.73,-126.24,0.17,0.07,0.83,0.85,0.92
6:10:12:8:101108,2.76,1.27,-125.77,-0.02,-0.06,0.7,0.7,0.8
6:10:12:9:101204,3.11,1.64,-126.16,0.06,-0.08,0.75,0.76,0.72
6:10:12:9:101316,3.27,1.73,-125.94,-0.02,0.12,0.71,0.72,0.74
6:10:12:9:101427,3.36,1.55,-126.05,-0.15,-0.04,0.75,0.77,0.74
6:10:12:9:101525,3.3,1.48,-126.29,0.05,0.19,0.8,0.83,0.79
6:10:12:9:101620,3.39,1.39,-126.32,-0.11,0.09,0.72,0.73,0.8
6:10:12:9:102120,3.88,1.79,-139.67,-0.13,0.05,0.91,0.92,0.79
6:10:12:10:102216,3.35,0.34,-143.37,-0.01,-0.19,0.9,0.92,0.92
6:10:12:10:102328,2.54,-1.1,-146.39,0.06,0.15,1.05,1.06,0.97
6:10:12:10:102408,2.32,-1.83,-148.62,-0.08,-0.08,1.03,1.04,1.05
6:10:12:10:102519,2.48,-2.48,-150.63,0.07,-0.08,1.06,1.06,1.04
6:10:12:10:102616,2.37,-3.05,-151.29,0.07,0.12,1.0,1.01,1.04
6:10:12:10:103121,1.46,-1.29,-155.03,-0.04,0.24,1.09,1.11,1.05
6:10:12:11:103218,0.93,-1.01,-156.15,-0.14,-0.17,1.06,1.08,1.1
6:10:12:11:103314,0.08,-1.08,-158.36,0.15,-0.06,1.03,1.04,1.07
6:10:12:11:103410,-0.85,-1.28,-159.5,-0.15,0.22,1.09,1.12,1.07
6:10:12:11:103506,-0.94,-1.7,-160.51,-0.14,-0.14,1.06,1.08,1.11
6:10:12:11:103617,-0.79,-2.4,-160.29,-0.04,0.33,1.1,1.14,1.1
6:10:12:11:103713,-0.66,-2.65,-158.49,0.04,-0.08,0.95,0.95,1.08
6:10:12:11:104124,-2.12,-0.97,-154.08,0.17,-0.11,1.0,1.02,0.98
6:10:12:12:104220,-2.92,-0.73,-152.25,-0.12,0.19,1.02,1.05,1.03
6:10:12:12:104332,-3.76,-2.01,-151.25,-0.07,-0.51,1.12,1.23,1.11
6:10:12:12:104396,-4.36,-3.15,-150.28,0.08,0.26,1.08,1.12,1.19
6:10:12:12:104523,-3.97,-2.61,-149.1,-0.21,0.03,0.88,0.91,1.05
6:10:12:12:104603,-4.06,-2.72,-149.39,0.04,-0.22,1.04,1.06,0.96
6:10:12:12:104731,-4.96,-2.67,-148.97,0.03,0.32,1.21,1.25,1.12
6:10:12:12:105121,-4.12,0.57,-148.58,-0.1,-0.33,1.01,1.07,1.19
6:10:12:13:105217,-3.32,0.8,-148.34,0.04,0.25,0.99,1.02,1.05
6:10:12:13:105313,-2.68,1.1,-147.97,0.01,-0.08,0.89,0.89,0.98
6:10:12:13:105424,-2.35,1.59,-148.42,0.05,-0.22,1.01,1.04,0.94
6:10:12:13:105521,-2.67,1.91,-147.94,-0.04,0.28,1.08,1.12,1.06
6:10:12:13:105617,-2.62,1.75,-147.27,0.02,-0.23,0.81,0.84,1.03
6:10:12:13:106097,2.86,2.03,-145.05,-0.2,-0.04,0.94,0.96,0.88
6:10:12:14:106225,2.69,2.23,-145.39,0.05,-0.14,0.96,0.97,0.96
6:10:12:14:106321,0.98,1.91,-145.04,-0.08,0.3,1.05,1.09,1.01
6:10:12:14:106417,-0.23,1.58,-145.2,-0.04,-0.12,0.91,0.92,1.03
6:10:12:14:106513,-1.34,0.43,-145.5,-0.05,0.32,1.03,1.08,0.97
6:10:12:14:106641,-2.06,-1.09,-145.13,-0.18,0.16,0.93,0.96,1.04
6:10:12:14:106705,-1.82,-1.19,-145.67,0.02,-0.08,1.03,1.03,0.99
6:10:12:14:107126,0.31,1.28,-145.55,-0.02,0.08,1.0,1.0,1.02
6:10:12:15:107254,0.49,1.12,-146.04,-0.14,-0.21,1.01,1.05,1.02
6:10:12:15:107318,-0.17,0.62,-146.64,-0.06,0.47,1.09,1.19,1.09
6:10:12:15:107414,0.02,0.49,-146.88,0.03,-0.08,0.86,0.86,1.08
6:10:12:15:107541,0.99,0.66,-147.33,0.0,-0.04,0.94,0.94,0.89
6:10:12:15:107637,1.37,0.41,-147.1,-0.1,0.24,1.01,1.05,0.97
6:10:12:15:108112,3.28,-1.14,-147.82,0.1,0.19,1.01,1.03,1.04
6:10:12:16:108209,3.14,-0.21,-147.26,0.03,-0.06,0.98,0.98,1.02
6:10:12:16:108320,3.47,0.21,-147.24,0.08,-0.03,0.94,0.94,0.97
6:10:12:16:108448,3.13,-0.23,-147.03,-0.01,0.08,0.95,0.95,0.95
6:10:12:16:108528,3.11,-0.55,-146.95,0.03,-0.15,0.91,0.92,0.94
6:10:12:16:108624,2.88,-0.67,-146.97,0.18,0.03,1.02,1.03,0.96
6:10:12:16:108720,2.18,-0.52,-146.65,0.06,0.03,1.0,1.0,1.02
6:10:12:16:109124,3.14,-1.12,-146.81,0.14,-0.04,0.97,0.98,1.0
6:10:12:17:109221,3.01,-1.22,-147.22,0.06,-0.01,1.06,1.06,1.0
6:10:12:17:109316,2.42,-0.58,-147.74,0.03,-0.12,0.93,0.94,1.02
6:10:12:17:109412,1.69,-0.41,-148.02,-0.03,0.05,0.95,0.96,0.95
6:10:12:17:109508,1.18,-0.48,-147.89,0.08,-0.0,1.0,1.0,0.97
6:10:12:17:109619,0.98,-0.62,-147.81,0.05,-0.05,0.99,0.99,1.0
6:10:12:17:109748,0.96,-0.56,-147.71,0.01,0.15,1.0,1.02,1.0
6:10:12:17:110106,3.43,-1.16,-148.06,0.08,-0.14,0.87,0.88,0.97
6:10:12:18:110233,4.13,-1.71,-148.2,-0.13,0.04,0.99,1.0,0.92
6:10:12:18:110329,4.32,-2.65,-148.27,0.06,-0.04,0.98,0.98,1.0
6:10:12:18:110425,4.7,-3.41,-148.47,-0.17,0.11,0.89,0.91,0.96
6:10:12:18:110521,5.06,-3.58,-148.84,0.01,0.09,1.03,1.03,0.95
6:10:12:18:110618,5.27,-3.53,-148.96,0.05,0.03,1.11,1.11,1.06
6:10:12:18:110714,5.12,-3.27,-149.23,-0.01,-0.14,0.97,0.98,1.07
6:10:12:18:111129,1.28,-2.01,-149.66,-0.03,0.25,1.07,1.1,1.02
6:10:12:19:111242,0.99,-1.75,-149.42,0.14,-0.31,0.92,0.99,1.06
6:10:12:19:111321,0.71,-1.46,-149.4,0.08,0.16,1.04,1.05,1.01
6:10:12:19:111418,0.36,-1.08,-148.84,0.01,0.05,1.1,1.1,1.07
6:10:12:19:111513,0.5,-0.85,-149.15,0.0,-0.29,1.0,1.04,1.08
6:10:12:19:111625,0.05,-0.99,-148.7,-0.06,0.33,1.08,1.13,1.07
6:10:12:19:111721,-0.18,-0.87,-148.54,-0.01,0.03,0.93,0.93,1.06
6:10:12:19:112118,0.48,-0.4,-148.83,0.01,0.39,1.01,1.08,0.98
6:10:12:20:112214,1.04,-0.31,-148.29,-0.07,0.02,0.88,0.89,1.02
6:10:12:20:112310,1.88,-0.52,-148.66,0.06,-0.13,1.0,1.01,0.93
6:10:12:20:112406,2.06,-1.18,-148.17,-0.03,0.23,1.05,1.07,1.03
6:10:12:20:112502,2.61,-1.36,-148.26,0.07,-0.2,0.93,0.95,1.03
6:10:12:20:112599,2.57,-1.36,-148.49,-0.07,0.37,0.98,1.05,0.98
6:10:12:20:112710,2.13,-1.2,-148.06,-0.09,0.14,1.02,1.03,1.05
6:10:12:20:113126,1.32,0.15,-147.66,0.06,-0.02,0.9,0.9,0.99
6:10:12:21:113222,1.49,-0.23,-146.82,0.03,0.13,1.03,1.04,0.94
6:10:12:21:113318,1.77,-0.67,-147.04,-0.07,-0.23,0.99,1.02,1.03
6:10:12:21:113414,1.96,-1.4,-146.87,-0.0,0.36,1.02,1.08,1.04
6:10:12:21:113510,1.92,-1.72,-146.69,-0.01,-0.09,0.95,0.95,1.04
6:10:12:21:113606,2.09,-1.8,-147.27,-0.1,-0.0,0.97,0.98,0.96
6:10:12:21:113750,2.07,-1.88,-146.97,-0.06,0.3,1.02,1.06,1.01
6:10:12:21:114108,2.33,-1.37,-147.0,0.05,-0.25,0.9,0.94,1.02
6:10:12:22:114220,2.16,-1.46,-146.76,-0.02,0.3,1.03,1.07,0.98
6:10:12:22:114315,2.0,-1.41,-146.69,-0.12,-0.04,0.89,0.89,1.01
6:10:12:22:114411,2.1,-1.3,-147.06,0.07,0.07,0.93,0.94,0.91
6:10:12:22:114507,1.69,-1.18,-146.59,0.02,0.08,1.04,1.05,0.98
6:10:12:22:114603,1.9,-1.22,-146.85,-0.1,-0.05,1.05,1.06,1.05
6:10:12:22:114715,1.86,-1.36,-146.74,-0.01,0.29,1.05,1.08,1.07
6:10:12:22:115121,1.64,-0.88,-147.14,-0.1,-0.16,1.1,1.12,1.1
6:10:12:23:115202,1.51,-0.52,-147.19,0.09,0.25,1.02,1.05,1.1
6:10:12:23:115314,1.43,-0.34,-146.9,-0.15,0.09,1.13,1.14,1.08
6:10:12:23:115410,1.53,-0.27,-147.35,-0.03,-0.09,0.99,1.0,1.09
6:10:12:23:115506,1.35,-0.47,-146.9,-0.07,0.33,1.08,1.13,1.04
6:10:12:23:115617,2.0,-0.54,-146.85,-0.04,-0.14,0.92,0.93,1.06
6:10:12:23:115713,2.6,-0.45,-146.92,0.09,0.19,0.98,1.01,0.95
6:10:12:23:116106,2.05,-0.82,-146.47,-0.12,0.05,0.89,0.9,0.97
6:10:12:24:116234,2.26,-1.08,-146.91,0.08,0.1,0.93,0.94,0.91
6:10:12:24:116314,2.25,-1.17,-146.49,-0.12,0.19,0.95,0.97,0.95
6:10:12:24:116410,2.39,-0.93,-146.91,0.04,-0.21,0.99,1.02,0.99
6:10:12:24:116506,2.13,-0.94,-146.85,-0.02,0.35,1.03,1.09,1.04
6:10:12:24:116618,2.21,-0.85,-146.84,-0.04,-0.07,0.96,0.97,1.05
6:10:12:24:116714,2.42,-0.74,-147.27,0.02,0.0,0.98,0.98,0.97
6:10:12:24:117105,2.95,-1.12,-147.32,0.05,-0.07,0.9,0.91,0.96
6:10:12:25:117200,3.43,-1.17,-147.83,-0.07,0.12,1.05,1.06,0.96
6:10:12:25:117329,2.95,-1.07,-147.53,0.04,0.17,0.95,0.97,1.03
6:10:12:25:117409,3.35,-0.7,-147.68,-0.03,-0.1,0.9,0.91,0.95
6:10:12:25:117536,3.61,-0.64,-147.76,0.06,0.2,0.98,1.0,0.94
6:10:12:25:117616,3.37,-0.6,-147.47,-0.21,0.26,0.94,1.0,1.0
6:10:12:25:117713,3.44,-0.33,-147.93,0.08,-0.18,0.9,0.92,0.97
6:10:12:25:118122,2.99,0.27,-147.58,-0.17,0.19,0.98,1.01,0.95
6:10:12:26:118217,3.12,0.18,-147.96,0.07,-0.25,0.96,1.0,1.01
6:10:12:26:118313,2.76,-0.23,-147.78,-0.04,0.34,1.11,1.16,1.05
6:10:12:26:118410,2.74,-0.65,-147.77,-0.1,-0.02,0.94,0.94,1.09
6:10:12:26:118505,2.92,-0.97,-148.15,0.02,0.09,0.96,0.97,0.95
6:10:12:26:118602,2.72,-1.37,-147.86,-0.03,0.17,1.02,1.03,0.99
6:10:12:26:119115,2.85,-1.03,-147.83,0.01,0.19,1.11,1.13,1.06
6:10:12:27:119211,3.11,-0.78,-148.04,-0.03,-0.15,0.95,0.96,1.07
6:10:12:27:119307,3.42,-0.72,-148.13,-0.03,0.31,0.97,1.02,0.98
6:10:12:27:119403,3.31,-0.9,-147.53,-0.03,-0.0,0.93,0.94,0.99
6:10:12:27:119515,3.58,-0.95,-147.82,-0.07,0.05,1.03,1.04,0.97
6:10:12:27:119611,2.83,-1.09,-147.36,0.06,0.22,1.0,1.02,1.03
6:10:12:28:120209,3.18,-0.45,-147.2,-0.12,-0.02,0.93,0.94,0.99
6:10:12:28:120305,3.57,-0.66,-147.46,-0.07,0.09,0.93,0.94,0.94
6:10:12:28:120401,3.54,-0.92,-147.28,0.08,0.08,1.04,1.05,0.98
6:10:12:28:120512,3.84,-0.81,-147.48,-0.06,-0.07,0.96,0.97,1.02
6:10:12:28:120609,4.12,-0.77,-147.56,0.03,0.19,0.96,0.98,0.97
6:10:12:28:120705,4.14,-0.9,-147.36,0.03,-0.04,0.84,0.84,0.93
6:10:12:28:121111,4.22,-1.32,-147.84,0.1,0.2,0.99,1.02,0.9
6:10:12:29:121222,4.37,-1.15,-147.62,-0.08,0.07,0.96,0.97,1.0
6:10:12:29:121335,4.35,-0.49,-147.88,-0.04,-0.02,0.99,0.99,0.98
6:10:12:29:121415,4.17,-0.15,-147.62,-0.05,0.22,0.98,1.01,1.0
6:10:12:29:121510,4.34,-0.05,-147.69,0.04,-0.28,0.97,1.01,1.01
6:10:12:29:121638,4.42,-0.04,-147.92,0.06,0.24,0.98,1.02,1.01
6:10:12:29:122121,4.17,0.03,-147.86,0.08,0.08,0.86,0.86,0.97
6:10:12:30:122216,4.19,-0.01,-147.39,0.06,0.12,1.02,1.03,0.92
6:10:12:30:122328,4.43,0.16,-147.51,0.02,-0.16,1.0,1.02,1.02
6:10:12:30:122424,4.37,0.0,-147.48,-0.04,0.31,1.04,1.09,1.04
6:10:12:30:122504,4.81,-0.41,-147.48,-0.09,0.07,1.02,1.03,1.07
6:10:12:30:122600,5.24,-0.82,-147.86,-0.1,0.23,0.96,0.99,1.02
6:10:12:30:123130,4.91,-0.77,-148.31,0.02,0.01,0.92,0.92,0.96
6:10:12:31:123210,4.37,-0.85,-148.1,0.07,0.05,0.98,0.99,0.94
6:10:12:31:123305,4.0,-0.64,-148.5,-0.01,-0.08,1.03,1.04,1.0
6:10:12:31:123402,3.38,-0.51,-148.57,0.01,0.35,1.03,1.09,1.05
6:10:12:31:123530,3.11,-0.41,-148.36,0.02,-0.13,0.9,0.91,1.03
6:10:12:31:123626,3.22,-0.21,-148.55,0.08,0.03,1.06,1.06,0.96
6:10:12:31:124131,4.24,-0.54,-147.57,-0.07,-0.06,0.96,0.97,1.03
6:10:12:32:124211,3.96,-0.68,-147.39,-0.1,0.25,1.04,1.08,1.0
6:10:12:32:124307,4.09,-0.67,-147.54,-0.03,-0.11,0.91,0.91,1.02
6:10:12:32:124419,4.0,-0.89,-147.94,-0.02,0.21,0.93,0.95,0.93
6:10:12:32:124514,3.63,-1.22,-147.76,0.01,-0.06,0.9,0.9,0.94
6:10:12:32:124610,3.69,-1.27,-148.17,-0.04,-0.05,0.91,0.91,0.91
6:10:12:32:125147,3.04,-0.77,-148.25,0.06,-0.14,1.02,1.03,0.95
6:10:12:33:125211,2.85,-1.12,-148.15,-0.07,0.46,1.08,1.18,1.08
6:10:12:33:125307,3.21,-1.19,-147.96,0.04,-0.1,0.94,0.95,1.1
6:10:12:33:125404,3.59,-1.31,-148.22,0.0,0.17,0.98,0.99,0.96
6:10:12:33:125500,3.39,-1.34,-147.88,-0.11,0.13,0.95,0.96,0.98
6:10:12:33:125594,3.5,-1.29,-148.14,0.01,-0.23,0.93,0.96,0.96
6:10:12:33:126107,3.04,-0.48,-147.96,0.01,-0.12,0.97,0.97,0.96
6:10:12:34:126203,2.85,-0.58,-148.02,0.07,0.14,0.96,0.97,0.97
6:10:12:34:126299,3.17,-0.74,-147.74,-0.11,0.11,0.96,0.97,0.97
6:10:12:34:126410,3.59,-0.55,-148.1,0.02,-0.06,0.97,0.97,0.97
6:10:12:34:126539,3.46,-0.66,-147.8,-0.14,0.33,1.07,1.13,1.03
6:10:12:34:126619,3.43,-0.83,-147.94,-0.03,-0.09,0.97,0.97,1.08
6:10:12:34:127120,3.36,-0.84,-147.97,-0.09,-0.01,0.84,0.84,0.93
6:10:12:35:127216,3.44,-1.15,-148.23,0.05,0.08,0.96,0.97,0.88
6:10:12:35:127360,2.98,-1.28,-147.94,-0.05,0.11,0.96,0.96,0.97
6:10:12:35:127408,3.07,-1.39,-148.18,0.02,-0.2,0.91,0.93,0.95
6:10:12:35:127503,2.81,-1.54,-148.13,0.04,0.22,0.97,1.0,0.95
6:10:12:35:127632,2.83,-1.39,-148.0,0.04,-0.11,0.86,0.86,0.95
6:10:12:35:128120,2.93,-0.65,-147.58,-0.03,0.02,0.98,0.98,0.9
6:10:12:36:128216,3.54,-0.69,-147.91,0.09,-0.08,0.98,0.98,0.98
6:10:12:36:128312,3.42,-0.59,-147.68,-0.11,0.3,1.08,1.12,1.03
6:10:12:36:128439,3.67,-0.72,-147.78,-0.13,-0.13,0.99,1.01,1.09
6:10:12:36:128535,3.89,-0.91,-148.02,0.08,0.12,0.93,0.95,0.99
6:10:12:36:128616,3.83,-0.76,-147.83,-0.12,0.04,0.86,0.87,0.92
6:10:12:36:129112,4.03,-0.16,-147.69,0.01,-0.08,0.9,0.91,0.88
6:10:12:37:129207,4.18,-0.07,-147.99,-0.0,-0.02,1.03,1.03,0.95
6:10:12:37:129319,3.91,-0.45,-147.76,0.07,0.16,0.97,0.99,1.02
6:10:12:37:129415,3.98,-0.99,-147.83,0.05,-0.16,0.94,0.95,0.98
6:10:12:37:129511,4.05,-1.1,-148.14,0.12,0.12,0.96,0.98,0.96
6:10:12:37:129623,3.81,-1.13,-147.81,-0.08,0.18,1.09,1.11,1.02
6:10:12:37:129735,3.73,-0.93,-148.08,0.02,-0.13,1.0,1.01,1.07
6:10:12:37:130129,3.09,-0.94,-147.21,-0.09,0.27,1.07,1.11,1.04
6:10:12:38:130209,3.19,-0.75,-147.1,-0.01,-0.16,0.89,0.91,1.04
6:10:12:38:130305,3.18,-0.59,-147.02,0.08,0.19,0.96,0.99,0.93
6:10:12:38:130401,3.26,-0.39,-146.69,-0.06,0.02,0.89,0.89,0.96
6:10:12:38:130545,3.66,-0.16,-146.82,0.06,-0.09,1.0,1.01,0.93
6:10:12:38:130609,3.47,-0.16,-146.48,0.02,0.22,1.07,1.09,1.04
6:10:12:38:130705,3.53,0.06,-146.49,-0.02,-0.16,1.03,1.04,1.08
6:10:12:38:131139,3.46,-0.32,-146.39,0.0,0.23,1.04,1.07,1.05
6:10:12:39:131220,3.72,-0.55,-146.21,-0.13,0.05,0.94,0.95,1.03
6:10:12:39:131332,4.12,-0.71,-146.4,0.03,0.05,0.9,0.91,0.94
6:10:12:39:131411,3.82,-1.12,-146.14,-0.13,0.22,1.06,1.09,0.97
6:10:12:39:131507,3.81,-1.17,-146.25,0.03,-0.19,0.91,0.93,1.03
6:10:12:39:131604,3.45,-1.23,-146.24,0.07,0.15,0.98,1.0,0.95
6:10:12:39:131715,3.37,-1.35,-146.02,-0.1,0.03,0.89,0.9,0.96
6:10:12:39:132112,3.45,-1.23,-146.34,-0.08,0.33,0.94,1.0,0.93
6:10:12:40:132209,3.38,-1.15,-145.99,-0.01,-0.04,0.83,0.84,0.94
6:10:12:40:132337,3.4,-0.92,-146.16,-0.01,0.03,0.94,0.94,0.87
6:10:12:40:132416,3.23,-0.86,-145.82,0.04,0.18,1.02,1.04,0.97
6:10:12:40:132560,3.64,-0.83,-145.77,-0.02,-0.12,0.9,0.91,0.99
6:10:12:40:132625,3.73,-1.01,-145.87,0.1,0.1,0.92,0.93,0.91
6:10:12:40:132768,3.37,-1.17,-145.59,-0.08,0.14,1.01,1.03,0.96
6:10:12:40:133117,3.67,-0.19,-145.92,0.0,0.1,0.89,0.9,0.98
6:10:12:41:133213,3.42,0.08,-145.64,-0.18,0.17,0.96,0.99,0.93
6:10:12:41:133309,3.75,0.08,-145.87,0.01,-0.18,0.88,0.9,0.96
6:10:12:41:133437,3.97,-0.36,-145.74,0.04,0.23,0.94,0.97,0.92
6:10:12:41:133517,4.29,-0.78,-145.76,0.04,-0.15,0.87,0.88,0.94
6:10:12:41:133628,4.54,-0.93,-146.05,0.08,0.07,0.99,1.0,0.92
6:10:12:41:134120,5.11,-0.21,-145.99,0.03,-0.08,0.82,0.83,0.94
6:10:12:42:134216,5.14,-0.24,-145.75,-0.01,0.22,1.07,1.09,0.92
6:10:12:42:134328,5.18,-0.19,-145.83,-0.03,-0.04,0.89,0.89,1.02
6:10:12:42:134408,5.37,-0.01,-145.83,0.13,0.11,0.94,0.95,0.91
6:10:12:42:134520,5.24,0.21,-145.48,-0.09,0.05,0.88,0.89,0.93
6:10:12:42:134631,5.23,0.39,-145.72,0.12,-0.12,1.01,1.02,0.93
6:10:12:42:134728,4.81,0.41,-145.51,-0.05,0.29,1.05,1.09,1.05
6:10:12:42:135112,4.6,-0.2,-145.89,0.0,-0.15,0.99,1.0,1.06
6:10:12:43:135239,4.25,-0.19,-145.9,-0.02,0.23,1.05,1.08,1.02
6:10:12:43:135319,4.18,-0.16,-145.75,-0.06,-0.04,1.02,1.02,1.06
6:10:12:43:135415,4.45,-0.28,-146.08,0.0,0.16,0.97,0.99,1.01
6:10:12:43:135559,4.11,-0.29,-145.74,-0.11,0.11,0.93,0.95,0.97
6:10:12:43:135671,4.27,-0.16,-145.87,0.04,-0.17,0.97,0.98,0.96
6:10:12:43:135703,4.16,-0.03,-145.81,-0.0,0.25,0.85,0.88,0.95
6:10:12:43:136175,4.0,-0.3,-145.92,0.01,-0.11,1.0,1.0,0.92
6:10:12:44:136207,3.75,0.1,-145.94,0.04,0.25,1.05,1.08,1.03
6:10:12:44:136303,4.09,0.3,-145.69,-0.16,0.08,0.79,0.81,0.99
6:10:12:44:136399,4.47,0.27,-145.8,-0.04,-0.04,0.71,0.71,0.78
6:10:12:44:136511,4.52,0.21,-145.68,0.06,0.02,0.74,0.74,0.72
6:10:12:44:136607,4.68,0.17,-145.62,-0.07,0.01,0.71,0.71,0.73
6:10:12:44:137125,5.29,0.86,-145.73,-0.09,0.01,0.66,0.67,0.7
6:10:12:45:137205,5.16,0.8,-145.78,-0.01,0.01,0.58,0.58,0.64
6:10:12:45:137317,5.06,0.7,-145.71,-0.12,0.27,0.68,0.74,0.63
6:10:12:45:137412,5.05,0.79,-145.75,-0.04,0.28,0.81,0.85,0.78
6:10:12:45:137541,5.09,0.97,-145.63,-0.1,0.18,0.74,0.77,0.83
6:10:12:45:137605,5.17,1.02,-145.48,0.11,-0.17,0.6,0.63,0.72
6:10:12:45:138112,5.58,0.0,-146.13,-0.1,0.02,0.75,0.75,0.67
6:10:12:46:138208,5.79,-0.06,-146.35,-0.14,0.1,0.82,0.84,0.78
6:10:12:46:138320,6.03,-0.23,-146.58,0.01,0.09,0.96,0.97,0.88
6:10:12:46:138416,6.32,-0.44,-146.71,-0.12,0.26,0.92,0.96,0.97
6:10:12:46:138513,6.41,-0.54,-146.91,0.06,-0.11,0.9,0.9,0.94
6:10:12:46:138624,6.31,-0.64,-146.96,0.1,-0.02,0.95,0.96,0.92
6:10:12:46:138720,6.14,-0.75,-147.08,0.02,-0.15,0.86,0.87,0.93
6:10:12:46:139105,4.68,-0.24,-147.31,-0.13,0.14,1.04,1.06,0.93
6:10:12:47:139217,4.42,-0.22,-147.28,0.0,0.16,1.1,1.11,1.08
6:10:12:47:139313,4.13,-0.03,-147.2,0.03,-0.09,0.9,0.91,1.05
6:10:12:47:139425,3.78,0.15,-147.2,-0.02,0.1,1.03,1.03,0.95
6:10:12:47:139521,3.59,0.14,-147.13,0.17,-0.2,0.98,1.01,1.03
6:10:12:47:139617,3.36,0.41,-147.1,0.16,-0.11,0.91,0.93,0.99
6:10:12:47:139713,3.02,0.63,-146.96,0.16,-0.03,0.96,0.98,0.95
6:10:12:47:140104,2.5,0.74,-147.16,0.16,-0.08,1.03,1.05,1.0
6:10:12:48:140216,2.42,0.8,-147.27,-0.03,0.02,0.97,0.97,1.02
6:10:12:48:140312,2.35,0.87,-147.41,-0.07,0.2,0.99,1.01,0.99
6:10:12:48:140424,2.36,0.88,-147.41,-0.04,0.09,1.03,1.04,1.02
6:10:12:48:140536,2.47,0.9,-147.51,0.12,-0.08,0.96,0.97,1.02
6:10:12:48:140632,2.53,0.8,-147.51,-0.12,0.2,1.07,1.1,1.01
6:10:12:48:140711,2.76,0.7,-147.34,0.04,-0.14,0.83,0.84,1.01
6:10:12:48:141104,3.35,0.26,-147.49,-0.07,0.14,1.0,1.01,0.9
6:10:12:49:141280,3.36,0.26,-147.44,0.03,0.04,0.96,0.96,0.99
6:10:12:49:141312,3.5,0.34,-147.37,-0.0,0.06,1.04,1.04,0.99
6:10:12:49:141424,3.32,0.47,-147.43,-0.14,0.26,0.99,1.03,1.04
6:10:12:49:141583,3.34,0.56,-147.3,0.02,0.13,0.96,0.96,1.01
6:10:12:49:141616,3.35,0.52,-147.29,0.02,-0.01,0.91,0.92,0.95
6:10:12:49:141728,3.24,0.4,-147.32,-0.06,0.09,1.01,1.02,0.95
6:10:12:50:142234,3.67,0.0,-147.59,0.04,-0.13,0.86,0.87,0.97
6:10:12:50:142314,3.43,0.1,-147.44,-0.0,0.14,1.02,1.03,0.92
6:10:12:50:142427,3.09,0.24,-147.26,-0.03,0.04,1.06,1.06,1.04
6:10:12:50:142506,2.93,0.29,-147.19,0.14,-0.02,1.03,1.04,1.06
6:10:12:50:142602,2.97,0.12,-147.12,-0.05,-0.01,1.0,1.0,1.03
6:10:12:50:142714,3.0,0.02,-147.11,-0.09,0.16,0.97,0.98,0.99
6:10:12:50:142819,3.1,0.09,-147.09,0.12,-0.01,0.96,0.97,0.98
6:10:12:51:144119,47.78,11.5,30.15,-0.05,0.03,-0.03,0.07,0.67
6:10:12:52:144405,57.14,5.58,47.4,-0.04,0.03,-0.01,0.06,0.07
6:10:12:52:144414,56.46,-0.32,59.9,-0.03,0.04,0.03,0.06,0.06
6:10:12:52:144493,52.33,-3.35,69.71,0.01,0.06,0.04,0.07,0.06
6:10:12:52:144682,44.21,-5.82,73.25,-0.07,0.13,0.15,0.21,0.12
6:10:12:52:144856,32.17,-3.33,65.62,0.03,-0.21,0.39,0.44,0.29
6:10:12:52:144857,40.3,-8.51,63.11,0.01,-0.15,0.22,0.27,0.39
6:10:12:52:145168,1.11,-40.58,156.22,0.09,-0.07,0.65,0.65,0.4
6:10:12:53:145223,-2.76,-38.63,-173.66,-0.21,0.15,0.88,0.92,0.74
6:10:12:53:145366,-0.77,-26.54,-156.19,-0.08,0.2,1.25,1.26,1.03
6:10:12:53:145479,-3.88,-12.72,-154.91,0.03,0.1,0.99,1.0,1.17
6:10:12:53:145637,5.83,-14.76,-165.23,-0.02,0.37,1.86,1.9,1.3
6:10:12:53:145637,6.76,-28.34,153.73,-1.6,0.72,3.91,4.29,2.7
6:10:12:53:145728,24.7,-3.82,5.6,-2.08,-0.61,1.39,2.58,3.72
6:10:12:53:146111,8.36,-54.44,-150.38,-0.6,-0.24,1.14,1.31,2.15
6:10:12:54:146207,22.16,-32.67,-159.42,-0.55,-0.21,1.31,1.44,1.35
6:10:12:54:146335,17.26,-11.22,-157.5,-0.42,-0.23,1.61,1.68,1.52
6:10:12:54:146447,19.46,4.54,-150.61,-0.37,-0.02,1.5,1.55,1.64
6:10:12:54:146527,19.53,19.29,-135.65,-0.25,0.02,1.34,1.36,1.48
6:10:12:54:146607,21.88,27.86,-119.86,-0.22,0.14,1.08,1.11,1.28
6:10:12:54:146733,24.59,31.15,-98.95,-0.08,0.03,0.98,0.98,1.07
6:10:12:54:147128,42.27,1.85,8.08,-0.2,0.07,0.88,0.91,0.96
6:10:12:55:147256,44.9,-18.86,50.73,-0.35,0.09,0.9,0.97,0.93
6:10:12:55:147320,22.01,-35.81,126.59,-0.45,0.43,1.07,1.24,1.06
6:10:12:55:147448,-4.86,-14.62,-166.94,-0.16,0.6,1.12,1.28,1.25
6:10:12:55:147527,-12.45,-0.33,-158.34,0.01,0.43,1.63,1.68,1.41
6:10:12:55:147623,-0.36,-9.02,163.58,-1.03,-0.21,2.46,2.68,2.02
6:10:12:55:147733,5.18,3.4,126.77,-0.04,-0.26,1.19,1.22,2.19
6:10:12:55:148143,30.03,-30.13,172.81,-0.13,0.12,1.23,1.24,1.23
6:10:12:56:148223,49.78,-15.34,137.0,-0.08,0.19,1.13,1.15,1.21
6:10:12:56:148351,56.16,-7.0,123.49,-0.04,0.15,1.08,1.09,1.13
6:10:12:56:148414,50.5,-14.97,133.63,-0.09,0.18,1.05,1.07,1.08
6:10:12:56:148558,29.5,-24.48,162.16,-0.06,0.13,0.95,0.96,1.04
6:10:12:56:148622,17.78,-30.2,-176.69,-0.08,0.28,0.91,0.96,0.96
6:10:12:56:148715,18.04,-30.1,178.39,-0.07,0.23,0.91,0.95,0.95
6:10:12:56:149147,18.52,-20.09,163.21,-0.09,0.11,0.88,0.89,0.93
6:10:12:57:149227,13.88,-22.45,179.9,-0.12,0.17,0.86,0.89,0.89
6:10:12:57:149307,12.53,-22.32,-178.07,-0.12,0.15,0.87,0.89,0.89
6:10:12:57:149403,14.48,-19.12,172.28,-0.11,0.1,0.87,0.88,0.89
6:10:12:57:149515,15.41,-14.45,164.66,-0.09,0.03,0.86,0.87,0.88
6:10:12:57:149627,16.46,-12.19,166.8,-0.09,0.04,0.85,0.85,0.86
6:10:12:57:149732,17.65,-13.12,176.05,-0.12,0.08,0.87,0.88,0.86
6:10:12:57:150117,15.23,-4.39,-168.54,-0.09,0.09,0.78,0.79,0.85
6:10:12:58:150259,15.56,-4.68,-165.32,-0.08,0.1,0.8,0.81,0.8
6:10:12:58:150308,16.3,-5.01,-159.58,-0.12,0.15,0.82,0.84,0.82
6:10:12:58:150436,15.32,-2.32,-155.75,-0.11,0.17,0.89,0.91,0.87
6:10:12:58:150531,13.2,-0.92,-154.26,-0.04,0.13,0.95,0.96,0.93
6:10:12:58:150612,13.73,-4.42,-150.53,-0.1,0.15,0.98,1.0,0.97
6:10:12:58:150770,14.64,-5.24,-146.72,-0.08,0.14,1.07,1.08,1.02
6:10:12:58:151139,19.89,-20.09,-138.3,-0.09,0.18,1.36,1.38,1.18
6:10:12:59:151204,20.98,-25.89,-135.28,-0.15,0.14,1.37,1.39,1.38
6:10:12:59:151299,20.25,-29.34,-134.58,-0.08,0.15,1.3,1.31,1.36
6:10:12:59:151412,23.67,-35.59,-138.26,-0.09,0.14,1.22,1.23,1.29
6:10:12:59:151508,28.08,-40.16,-142.64,-0.14,0.23,1.17,1.2,1.22
6:10:12:59:151620,28.48,-42.2,-143.4,-0.11,0.09,1.06,1.06,1.16
6:10:12:59:151731,21.85,-41.6,-137.69,-0.14,0.06,0.97,0.98,1.04
6:10:12:59:152120,8.64,-45.87,-125.42,-0.13,0.01,0.83,0.84,0.93
6:10:13:0:152264,1.29,-45.51,-117.32,-0.15,0.0,0.82,0.83,0.84
6:10:13:0:152311,-5.23,-45.12,-107.57,-0.17,0.01,0.84,0.85,0.84
6:10:13:0:152407,-9.39,-44.7,-99.93,-0.18,0.03,0.88,0.89,0.87
6:10:13:0:152503,-11.44,-42.5,-96.21,-0.16,0.03,0.89,0.91,0.9
6:10:13:0:152615,-13.53,-40.1,-93.62,-0.16,0.03,0.91,0.92,0.91
6:10:13:0:152753,-16.24,-35.77,-88.86,-0.12,0.05,0.9,0.91,0.92
6:10:13:0:153165,2.9,-20.18,-93.12,-0.08,0.13,0.97,0.98,0.93
6:10:13:1:153277,7.15,-17.49,-97.55,0.02,0.18,0.96,0.98,0.98
6:10:13:1:153325,11.31,-14.65,-97.47,0.01,0.26,0.92,0.96,0.97
6:10:13:1:153452,13.17,-13.15,-97.88,0.04,0.34,0.9,0.96,0.96
6:10:13:1:153533,13.02,-10.3,-100.95,0.11,0.29,0.92,0.97,0.96
6:10:13:1:153645,13.88,-8.73,-103.33,0.08,0.32,0.95,1.0,0.98
6:10:13:1:153725,16.11,-8.48,-106.1,0.08,0.33,0.94,1.0,1.0
6:10:13:1:154128,16.33,-2.84,-116.39,0.05,0.31,0.98,1.04,1.01
6:10:13:2:154223,13.56,-0.93,-114.76,0.01,0.25,1.11,1.14,1.07
6:10:13:2:154335,10.96,2.87,-110.08,-0.1,0.07,1.07,1.08,1.12
6:10:13:2:154416,10.18,-0.01,-101.09,-0.06,0.21,1.1,1.12,1.09
6:10:13:2:154544,7.79,-8.25,-100.5,-0.06,0.21,1.2,1.22,1.15
6:10:13:2:154607,13.67,-8.83,-107.43,-0.01,0.3,1.13,1.16,1.2
6:10:13:2:154729,16.32,-11.93,-119.42,-0.08,0.18,1.19,1.21,1.18
6:10:13:2:155102,12.59,-25.37,-112.07,-0.11,0.21,0.99,1.02,1.14
6:10:13:3:155230,9.47,-22.13,-115.54,-0.08,0.14,0.97,0.98,1.01
6:10:13:3:155311,9.85,-19.58,-124.31,-0.08,0.09,0.95,0.96,0.97
6:10:13:3:155454,9.07,-19.08,-126.28,-0.09,0.08,0.94,0.95,0.95
6:10:13:3:155549,5.96,-18.9,-119.73,-0.11,0.09,0.9,0.91,0.93
6:10:13:3:155614,3.52,-18.84,-111.48,-0.11,0.13,0.86,0.88,0.9
6:10:13:3:155726,3.17,-19.53,-108.65,-0.1,0.12,0.85,0.86,0.87
6:10:13:3:156102,-0.96,-11.67,-103.63,-0.11,0.07,0.84,0.85,0.86
6:10:13:4:156230,-0.84,-7.63,-95.74,-0.1,0.11,0.85,0.87,0.85
6:10:13:4:156310,0.47,-6.59,-94.22,-0.1,0.15,0.91,0.93,0.89
6:10:13:4:156406,1.89,-5.98,-98.96,-0.08,0.15,0.91,0.92,0.93
6:10:13:4:156518,3.15,-5.55,-104.67,-0.06,0.13,0.92,0.93,0.93
6:10:13:4:156614,4.14,-5.16,-105.09,-0.04,0.14,0.9,0.91,0.92
6:10:13:4:156731,5.13,-4.79,-100.66,-0.04,0.18,0.9,0.92,0.91
6:10:13:5:157412,4.5,-2.68,-94.04,-0.02,0.15,1.09,1.1,0.98
6:10:13:5:157539,6.05,-4.44,-99.87,-0.01,0.17,1.12,1.13,1.11
6:10:13:5:157652,7.52,-8.62,-103.8,-0.03,0.2,1.18,1.19,1.15
6:10:13:5:157732,9.39,-12.46,-103.51,-0.08,0.22,1.22,1.24,1.21
6:10:13:5:157828,9.21,-14.61,-99.47,-0.06,0.22,1.2,1.22,1.24
6:10:13:5:157907,8.48,-17.91,-97.03,-0.07,0.21,1.15,1.17,1.2
6:10:13:5:158035,10.03,-20.75,-99.15,-0.07,0.19,1.15,1.17,1.17
6:10:13:6:159116,5.85,-12.5,-89.67,-0.11,0.1,0.91,0.92,1.09
6:10:13:7:159228,5.49,-11.07,-88.7,-0.11,0.11,0.88,0.9,0.92
6:10:13:7:159324,4.66,-8.87,-88.39,-0.1,0.12,0.9,0.92,0.9
6:10:13:7:159419,4.6,-6.93,-86.62,-0.08,0.11,0.9,0.91,0.92
6:10:13:7:159516,5.15,-5.6,-83.16,-0.08,0.15,0.9,0.91,0.91
6:10:13:7:159612,4.74,-3.74,-81.53,-0.08,0.16,0.89,0.91,0.91
6:10:13:7:159724,3.55,-2.04,-83.56,-0.05,0.14,0.87,0.88,0.9
6:10:13:7:160129,3.78,2.59,-82.31,0.0,0.19,0.81,0.84,0.87
6:10:13:8:160209,3.55,3.37,-81.9,-0.03,0.21,0.83,0.86,0.84
6:10:13:8:160321,2.84,5.04,-80.51,-0.01,0.2,0.84,0.86,0.86
6:10:13:8:160401,2.37,7.08,-79.4,-0.02,0.2,0.86,0.89,0.87
6:10:13:8:160528,2.43,7.96,-78.4,-0.01,0.19,0.96,0.97,0.92
6:10:13:8:160609,4.26,6.82,-75.97,-0.02,0.22,1.03,1.05,1.0
6:10:13:8:160733,3.85,7.59,-74.17,-0.02,0.24,1.14,1.16,1.09
6:10:13:8:161110,14.83,-9.21,-86.29,-0.13,0.27,1.35,1.38,1.23
6:10:13:9:161239,16.2,-12.45,-87.74,-0.05,0.18,1.28,1.29,1.35
6:10:13:9:161302,17.08,-16.24,-87.87,-0.09,0.18,1.18,1.2,1.26
6:10:13:9:161415,19.45,-18.65,-89.74,-0.09,0.19,1.08,1.1,1.17
6:10:13:9:161511,18.18,-19.95,-91.73,-0.09,0.12,1.06,1.07,1.09
6:10:13:9:161622,15.14,-19.33,-90.38,-0.08,0.14,0.97,0.98,1.04
6:10:13:9:161732,12.62,-17.95,-87.67,-0.1,0.14,0.93,0.94,0.97
6:10:13:9:162112,9.59,-16.02,-91.19,-0.13,0.09,0.88,0.89,0.93
6:10:13:10:162208,9.1,-14.87,-91.08,-0.08,0.06,0.87,0.88,0.89
6:10:13:10:162337,8.54,-13.45,-90.02,-0.11,0.1,0.85,0.86,0.87
6:10:13:10:162432,7.8,-12.2,-88.41,-0.11,0.1,0.89,0.9,0.87
6:10:13:10:162528,7.66,-11.09,-88.1,-0.11,0.11,0.91,0.92,0.91
6:10:13:10:162608,7.3,-8.26,-88.18,-0.1,0.11,0.9,0.91,0.92
6:10:13:10:162704,6.09,-5.27,-87.84,-0.1,0.11,0.89,0.9,0.91
6:10:13:10:163130,4.19,3.35,-82.74,-0.09,0.22,0.9,0.93,0.91
6:10:13:11:163226,4.46,3.51,-83.5,-0.05,0.19,0.86,0.88,0.92
6:10:13:11:163338,4.56,4.16,-85.63,-0.06,0.17,0.85,0.87,0.88
6:10:13:11:163418,4.27,4.56,-87.71,-0.02,0.2,0.82,0.84,0.86
6:10:13:11:163514,3.13,4.37,-88.1,-0.05,0.13,0.84,0.85,0.85
6:10:13:11:163626,1.45,5.63,-86.91,-0.04,0.18,0.86,0.88,0.86
6:10:13:11:163728,-0.12,7.6,-85.5,-0.04,0.17,0.89,0.91,0.89
6:10:13:11:164128,2.59,2.46,-80.65,-0.08,0.17,1.33,1.35,1.05
6:10:13:12:164223,4.99,-3.46,-83.76,-0.1,0.18,1.37,1.39,1.36
6:10:13:12:164320,7.44,-7.48,-86.39,-0.1,0.15,1.42,1.43,1.4
6:10:13:12:164400,10.16,-13.5,-90.14,-0.14,0.17,1.42,1.43,1.43
6:10:13:12:164528,11.49,-18.17,-90.07,-0.12,0.17,1.35,1.37,1.41
6:10:13:12:164608,12.59,-23.48,-90.44,-0.13,0.17,1.26,1.28,1.34
6:10:13:12:164736,15.06,-28.12,-95.44,-0.12,0.13,1.16,1.17,1.25
6:10:13:12:165134,10.75,-33.92,-95.34,-0.15,0.02,0.87,0.88,1.08
6:10:13:13:165230,11.63,-34.14,-99.7,-0.11,0.06,0.81,0.82,0.86
6:10:13:13:165310,11.01,-34.22,-100.76,-0.14,0.03,0.84,0.85,0.83
6:10:13:13:165438,8.28,-34.36,-97.01,-0.15,0.04,0.82,0.84,0.85
6:10:13:13:165519,5.88,-35.04,-92.32,-0.18,0.11,0.85,0.88,0.85
6:10:13:13:165631,5.64,-34.74,-90.43,-0.19,0.09,0.92,0.94,0.9
6:10:13:13:165726,6.28,-32.34,-91.95,-0.14,0.04,0.92,0.93,0.94
6:10:13:13:166120,11.14,-20.28,-97.04,-0.03,0.21,0.9,0.92,0.93
6:10:13:14:166199,9.74,-18.26,-94.85,-0.03,0.14,0.88,0.89,0.91
6:10:13:14:166391,10.98,-18.0,-95.79,-0.06,0.16,0.8,0.82,0.87
6:10:13:14:166455,12.85,-17.86,-101.89,-0.03,0.23,0.83,0.86,0.83
6:10:13:14:166503,13.5,-16.37,-109.56,-0.04,0.19,0.78,0.81,0.84
6:10:13:14:166614,11.69,-14.04,-114.99,0.01,0.15,0.83,0.85,0.82
6:10:13:14:166839,12.05,-13.8,-116.29,0.0,0.21,0.86,0.88,0.86
6:10:13:15:167307,10.42,-11.51,-122.89,-0.04,0.18,1.13,1.15,0.97
6:10:13:15:167307,8.29,-10.91,-121.51,-0.02,0.12,1.15,1.16,1.15
6:10:13:15:167338,8.62,-16.8,-119.4,-0.08,0.26,1.25,1.28,1.2
6:10:13:15:167418,10.32,-21.73,-120.35,-0.01,0.26,1.32,1.34,1.3
6:10:13:15:167562,13.91,-28.5,-124.63,-0.07,0.17,1.41,1.42,1.37
6:10:13:15:167626,21.82,-36.38,-133.0,-0.08,0.23,1.34,1.36,1.4
6:10:13:15:167753,23.86,-40.13,-137.38,-0.1,0.16,1.28,1.29,1.34
6:10:13:15:168128,7.03,-46.15,-120.42,-0.09,0.03,0.93,0.94,1.17
6:10:13:16:168240,8.72,-46.78,-125.35,-0.1,0.06,0.87,0.87,0.92
6:10:13:16:168321,6.5,-47.91,-123.42,-0.12,0.07,0.85,0.86,0.87
6:10:13:16:168432,1.34,-49.04,-116.15,-0.16,0.09,0.83,0.85,0.86
6:10:13:16:168608,-6.9,-49.23,-106.54,-0.13,0.04,0.82,0.83,0.85
6:10:13:16:168609,-11.56,-47.9,-100.02,-0.14,0.07,0.84,0.86,0.84
6:10:13:16:168720,-15.0,-46.65,-96.06,-0.19,0.0,0.88,0.9,0.87
6:10:13:17:169212,-11.1,-33.01,-90.69,-0.09,0.16,0.91,0.93,0.91
6:10:13:17:169244,-7.93,-27.0,-89.97,-0.11,0.16,0.97,0.99,0.95
6:10:13:17:169324,-2.76,-22.4,-92.8,-0.08,0.12,0.95,0.96,0.98
6:10:13:17:169420,0.06,-20.82,-95.2,-0.04,0.14,0.93,0.94,0.96
6:10:13:17:169516,2.82,-20.54,-95.91,-0.05,0.16,0.9,0.91,0.93
6:10:13:17:169628,4.71,-19.91,-97.22,-0.03,0.2,0.86,0.88,0.9
6:10:13:17:169740,4.71,-18.49,-100.18,-0.01,0.25,0.87,0.91,0.89
6:10:13:18:171159,13.32,-24.06,-114.24,0.03,0.19,1.06,1.07,0.96
6:10:13:19:171223,15.56,-27.84,-123.85,-0.1,0.11,1.1,1.11,1.09
6:10:13:19:171319,15.52,-30.78,-126.02,-0.07,0.15,1.04,1.05,1.09
6:10:13:19:171415,9.2,-31.34,-117.01,-0.07,0.16,1.03,1.05,1.05
6:10:13:19:171528,2.33,-27.48,-104.57,-0.09,0.2,0.98,1.0,1.03
6:10:13:19:171624,-2.39,-24.18,-99.99,-0.09,0.16,0.94,0.96,0.99
6:10:13:19:171725,-2.92,-24.34,-103.65,-0.06,0.12,0.91,0.92,0.94
6:10:13:19:172123,-9.35,-23.02,-93.1,-0.11,0.1,0.86,0.87,0.9
6:10:13:20:172218,-9.66,-22.34,-90.68,-0.12,0.11,0.89,0.91,0.88
6:10:13:20:172314,-8.24,-21.5,-92.32,-0.11,0.11,0.94,0.96,0.93
6:10:13:20:172426,-5.18,-18.66,-94.16,-0.1,0.09,0.96,0.97,0.96
6:10:13:20:172506,-4.7,-16.25,-91.51,-0.1,0.12,0.92,0.94,0.96
6:10:13:20:172618,-3.99,-13.44,-88.6,-0.09,0.12,0.93,0.94,0.94
6:10:13:20:172746,-3.75,-11.0,-86.99,-0.07,0.15,0.93,0.95,0.94
6:10:13:20:173103,5.97,-6.4,-86.97,-0.03,0.19,0.96,0.98,0.96
6:10:13:21:173215,8.85,-5.84,-90.72,-0.03,0.25,0.98,1.01,0.99
6:10:13:21:173327,8.73,-4.32,-92.06,-0.01,0.16,0.98,0.99,1.0
6:10:13:21:173423,8.56,-3.97,-90.01,-0.01,0.17,1.01,1.02,1.0
6:10:13:21:173519,9.38,-4.88,-85.71,-0.03,0.21,1.02,1.04,1.03
6:10:13:21:173631,9.61,-5.63,-83.56,-0.04,0.21,1.06,1.09,1.06
6:10:13:21:173711,8.86,-4.84,-86.15,-0.03,0.21,1.11,1.13,1.1
6:10:13:21:174132,11.46,-13.59,-96.66,-0.06,0.11,1.09,1.1,1.12
6:10:13:22:174212,12.75,-17.57,-95.53,-0.03,0.22,1.08,1.1,1.1
6:10:13:22:174308,14.5,-20.66,-93.62,-0.1,0.2,1.08,1.1,1.1
6:10:13:22:174405,11.84,-20.42,-93.07,-0.07,0.14,1.06,1.07,1.09
6:10:13:22:174517,9.14,-19.42,-92.75,-0.07,0.13,0.98,0.99,1.04
6:10:13:22:174612,8.36,-18.36,-91.55,-0.08,0.12,0.94,0.95,0.98
6:10:13:22:174731,8.65,-19.02,-89.78,-0.09,0.13,0.93,0.94,0.95
6:10:13:22:175123,4.47,-16.79,-88.52,-0.11,0.09,0.9,0.91,0.93
6:10:13:23:175218,4.08,-15.58,-86.02,-0.1,0.12,0.9,0.91,0.91
6:10:13:23:175362,3.63,-13.68,-83.6,-0.09,0.12,0.9,0.91,0.91
6:10:13:23:175426,2.87,-11.67,-81.68,-0.09,0.11,0.9,0.91,0.91
6:10:13:23:175522,2.75,-9.64,-80.31,-0.09,0.13,0.88,0.89,0.91
6:10:13:23:175602,2.66,-6.66,-80.8,-0.08,0.13,0.89,0.9,0.89
6:10:13:23:175726,2.24,-4.39,-81.58,-0.05,0.12,0.88,0.89,0.9
6:10:13:23:176129,4.99,1.12,-78.12,-0.01,0.17,0.8,0.82,0.87
6:10:13:24:176209,5.43,0.94,-79.94,-0.02,0.19,0.83,0.85,0.83
6:10:13:24:176305,4.6,1.32,-82.37,-0.03,0.19,0.87,0.89,0.86
6:10:13:24:176433,3.19,3.18,-83.27,-0.03,0.16,0.97,0.99,0.92
6:10:13:24:176560,4.57,3.73,-80.57,-0.04,0.17,1.02,1.03,1.0
6:10:13:24:176641,5.52,4.46,-74.28,-0.05,0.21,1.11,1.13,1.06
6:10:13:24:176705,5.12,1.23,-72.49,-0.07,0.25,1.19,1.22,1.16
6:10:13:24:177141,10.06,-18.8,-80.45,-0.06,0.22,1.25,1.28,1.24
6:10:13:25:177222,10.72,-23.68,-79.77,-0.08,0.2,1.18,1.2,1.25
6:10:13:25:177318,9.65,-25.72,-82.81,-0.09,0.15,1.11,1.13,1.18
6:10:13:25:177445,10.14,-28.89,-86.55,-0.09,0.13,1.06,1.08,1.11
6:10:13:25:177510,8.54,-28.12,-85.0,-0.12,0.12,0.98,1.0,1.05
6:10:13:25:177621,7.05,-25.19,-81.71,-0.11,0.13,0.94,0.95,0.98
6:10:13:25:177749,5.5,-25.87,-81.09,-0.12,0.12,0.91,0.92,0.94
6:10:13:25:178117,5.7,-23.61,-86.23,-0.14,0.08,0.89,0.9,0.92
6:10:13:26:178212,4.46,-20.82,-82.63,-0.13,0.09,0.88,0.9,0.9
6:10:13:26:178323,5.27,-18.16,-82.61,-0.13,0.1,0.9,0.91,0.9
6:10:13:26:178420,5.35,-15.21,-85.3,-0.12,0.1,0.92,0.93,0.92
6:10:13:26:178515,4.77,-11.89,-88.11,-0.1,0.08,0.91,0.92,0.93
6:10:13:26:178627,4.93,-10.24,-89.32,-0.1,0.1,0.9,0.91,0.92
6:10:13:26:178730,5.49,-9.79,-89.69,-0.08,0.13,0.89,0.9,0.91
6:10:13:26:179141,8.52,-9.83,-101.47,0.02,0.18,0.66,0.69,0.83
6:10:13:27:179221,8.82,-10.85,-102.63,0.01,0.23,0.71,0.75,0.71
6:10:13:27:179301,6.23,-8.92,-104.39,-0.02,0.35,0.87,0.94,0.81
6:10:13:27:179429,-1.2,0.03,-106.86,0.05,0.13,0.97,0.98,0.95
6:10:13:27:179509,-2.48,4.54,-97.85,-0.01,0.15,1.16,1.17,1.05
6:10:13:27:179877,5.82,2.0,-88.69,-0.17,0.17,1.15,1.17,1.17
6:10:13:27:179973,6.31,-0.53,-85.8,-0.14,0.3,1.38,1.42,1.25
6:10:13:28:181110,-4.54,-31.51,-93.19,-0.09,0.04,0.83,0.83,1.22
6:10:13:29:181239,-5.12,-30.16,-88.56,-0.11,0.06,0.86,0.87,0.84
6:10:13:29:181334,-6.16,-29.53,-79.79,-0.09,0.19,0.88,0.91,0.88
6:10:13:29:181415,-9.18,-28.84,-72.92,-0.09,0.16,0.84,0.86,0.89
6:10:13:29:181527,-10.37,-28.54,-73.97,-0.02,0.19,0.86,0.88,0.86
6:10:13:29:181622,-6.73,-30.29,-79.36,-0.02,0.14,0.84,0.85,0.87
6:10:13:29:182141,-1.47,-23.39,-84.09,0.02,0.05,1.05,1.06,0.92
6:10:13:30:182221,-3.4,-24.93,-74.05,-0.06,0.19,1.05,1.07,1.06
6:10:13:30:182333,-1.83,-31.14,-73.39,-0.07,0.35,1.13,1.19,1.11
6:10:13:30:182477,7.04,-36.45,-89.0,-0.08,0.23,1.17,1.2,1.19
6:10:13:30:182526,20.47,-38.82,-110.72,-0.08,0.16,1.16,1.17,1.19
6:10:13:30:182621,23.18,-37.48,-119.14,-0.03,0.1,1.17,1.17,1.17
6:10:13:30:182787,19.81,-41.47,-112.58,-0.09,0.11,1.18,1.19,1.18
6:10:13:30:183115,34.43,-64.52,-123.2,-0.07,0.12,1.03,1.04,1.14
6:10:13:31:183211,29.99,-60.45,-122.05,-0.11,0.08,1.0,1.01,1.03
6:10:13:31:183323,19.4,-56.68,-114.4,-0.11,0.07,0.93,0.94,0.99
6:10:13:31:183435,11.09,-58.56,-107.25,-0.1,0.09,0.86,0.87,0.92
6:10:13:31:183515,4.77,-60.34,-102.15,-0.11,0.08,0.84,0.85,0.86
6:10:13:31:183627,1.04,-61.39,-100.34,-0.11,0.07,0.83,0.84,0.85
6:10:13:31:183748,-2.91,-61.52,-98.57,-0.11,0.05,0.83,0.83,0.84
6:10:13:31:184109,-32.33,-53.13,-71.53,-0.16,0.11,0.92,0.94,0.87
6:10:13:32:184205,-33.74,-49.38,-70.23,-0.13,0.11,0.9,0.92,0.93
6:10:13:32:184301,-36.5,-45.96,-68.74,-0.11,0.06,0.91,0.92,0.92
6:10:13:32:184430,-38.45,-42.1,-67.51,-0.1,0.1,0.9,0.91,0.92
6:10:13:32:184509,-38.39,-37.12,-66.97,-0.06,0.14,0.9,0.92,0.91
6:10:13:32:184605,-36.17,-32.38,-66.24,-0.03,0.16,0.95,0.96,0.93
6:10:13:32:184700,-27.67,-27.83,-67.72,-0.05,0.2,0.97,1.0,0.97
6:10:13:32:185146,-11.14,-33.32,-81.16,0.05,0.3,0.88,0.93,0.97
6:10:13:33:185210,-8.57,-32.45,-85.35,0.11,0.26,0.85,0.9,0.92
6:10:13:33:185321,-7.64,-31.35,-87.7,0.11,0.29,0.9,0.95,0.91
6:10:13:33:185418,-1.33,-27.16,-91.15,0.13,0.38,0.93,1.01,0.97
6:10:13:33:185530,5.94,-23.32,-96.74,0.11,0.37,0.89,0.97,1.0
6:10:13:33:185610,11.27,-19.79,-102.17,0.12,0.36,0.91,0.99,0.97
6:10:13:33:185714,15.04,-15.91,-106.61,0.12,0.36,0.95,1.02,1.0
6:10:13:33:186131,23.61,-21.09,-126.44,0.01,0.35,1.08,1.13,1.06
6:10:13:34:186227,36.62,-15.45,-146.5,0.03,0.34,1.0,1.06,1.11
6:10:13:34:186323,40.6,-6.0,-159.11,0.1,0.26,1.05,1.08,1.07
6:10:13:34:186419,41.32,-2.9,-158.24,0.11,0.31,1.04,1.09,1.09
6:10:13:34:186515,41.32,-5.44,-143.77,0.05,0.32,0.98,1.03,1.07
6:10:13:34:186627,37.1,-9.06,-123.8,0.05,0.41,0.9,0.99,1.02
6:10:13:34:186723,29.94,-8.28,-110.02,0.1,0.39,0.9,0.98,0.99
6:10:13:34:187117,28.16,-5.0,-132.39,0.12,0.34,0.82,0.89,0.95
6:10:13:35:187230,29.14,-4.43,-144.11,0.14,0.33,0.81,0.89,0.89
6:10:13:35:187357,28.51,-5.49,-150.02,0.13,0.35,0.83,0.91,0.89
6:10:13:35:187421,25.06,-5.97,-149.12,0.14,0.32,0.86,0.92,0.91
6:10:13:35:187502,20.24,-6.17,-140.4,0.13,0.35,0.86,0.94,0.93
6:10:13:35:187629,13.91,-4.3,-127.27,0.11,0.37,0.88,0.96,0.94
6:10:13:35:187734,9.99,1.19,-114.13,0.11,0.36,0.88,0.96,0.96
6:10:13:35:188126,14.24,8.23,-112.12,0.12,0.34,0.88,0.95,0.96
6:10:13:36:188222,14.76,4.64,-119.68,0.07,0.3,0.94,0.99,0.96
6:10:13:36:188302,15.4,2.93,-125.62,0.04,0.31,0.97,1.02,1.0
6:10:13:36:188430,15.74,4.06,-126.73,0.08,0.28,0.97,1.01,1.01
6:10:13:36:188510,17.28,4.47,-121.55,0.08,0.31,0.97,1.02,1.01
6:10:13:36:188622,18.01,3.46,-113.79,0.06,0.33,0.98,1.04,1.02
6:10:13:36:188718,18.14,3.04,-108.15,0.07,0.32,1.0,1.06,1.04
6:10:13:36:189109,22.86,2.76,-126.3,0.05,0.29,1.02,1.06,1.06
6:10:13:37:189221,25.7,3.15,-128.88,0.07,0.35,0.96,1.02,1.05
6:10:13:37:189318,28.74,3.45,-126.81,0.11,0.36,0.88,0.96,1.0
6:10:13:37:189414,28.66,3.33,-123.98,0.11,0.36,0.88,0.96,0.96
6:10:13:37:189525,26.72,3.17,-120.96,0.12,0.36,0.88,0.95,0.96
6:10:13:37:189621,24.05,3.73,-117.75,0.1,0.35,0.91,0.98,0.96
6:10:13:37:189729,22.3,5.6,-113.09,0.12,0.35,0.93,1.0,0.98
6:10:13:37:190109,16.35,8.08,-109.59,0.13,0.33,0.91,0.98,0.99
6:10:13:38:190221,13.84,6.4,-112.45,0.11,0.32,0.93,0.99,0.98
6:10:13:38:190333,13.62,4.98,-111.06,0.08,0.3,0.93,0.98,0.98
6:10:13:38:190413,15.97,6.78,-104.86,0.1,0.34,0.88,0.95,0.97
6:10:13:38:190525,16.77,7.87,-98.18,0.12,0.38,0.91,1.0,0.97
6:10:13:38:190621,14.01,7.11,-96.5,0.13,0.35,0.91,0.98,0.99
6:10:13:38:190729,12.93,3.7,-98.68,0.1,0.33,0.94,1.0,0.99
6:10:13:38:191130,21.1,4.62,-103.1,0.09,0.36,1.01,1.08,1.03
6:10:13:39:191210,20.67,5.53,-103.47,0.07,0.31,1.04,1.08,1.08
6:10:13:39:191322,22.6,7.13,-99.97,0.07,0.29,1.02,1.07,1.08
6:10:13:39:191418,26.45,7.13,-93.77,0.06,0.33,0.98,1.04,1.06
6:10:13:39:191514,27.26,6.25,-91.44,0.08,0.33,0.92,0.99,1.02
6:10:13:39:191625,24.5,4.54,-95.27,0.08,0.31,0.93,0.99,0.99
6:10:13:39:191732,23.27,4.0,-102.11,0.07,0.29,0.92,0.97,0.98
6:10:13:39:192113,25.12,2.02,-92.3,0.09,0.22,0.92,0.95,0.96
6:10:13:40:192209,25.06,3.17,-90.35,0.11,0.37,0.93,1.01,0.97
6:10:13:40:192305,23.3,5.55,-89.55,0.1,0.37,0.95,1.03,1.02
6:10:13:40:192417,22.43,6.86,-89.46,0.1,0.33,0.92,0.98,1.01
6:10:13:40:192529,22.49,7.89,-90.51,0.09,0.33,0.89,0.95,0.97
6:10:13:40:192625,20.1,8.73,-91.53,0.06,0.31,0.92,0.97,0.96
6:10:13:40:192730,17.77,11.66,-91.3,0.08,0.29,0.9,0.95,0.96
6:10:13:40:193126,12.05,16.28,-89.89,0.09,0.3,0.89,0.94,0.95
6:10:13:41:193238,11.37,15.37,-93.67,0.1,0.3,0.88,0.93,0.94
6:10:13:41:193318,10.92,13.73,-96.37,0.1,0.29,0.85,0.9,0.92
6:10:13:41:193430,10.52,11.16,-97.44,0.09,0.29,0.87,0.92,0.91
6:10:13:41:193526,10.77,9.66,-96.65,0.09,0.31,0.89,0.95,0.93
6:10:13:41:193622,13.15,10.08,-93.28,0.11,0.32,0.95,1.01,0.97
6:10:13:41:194105,23.82,13.08,-92.17,0.01,0.35,1.09,1.14,1.05
6:10:13:42:194201,21.79,16.02,-105.14,0.07,0.25,1.0,1.03,1.1
6:10:13:42:194329,21.31,16.21,-110.28,0.05,0.3,0.99,1.03,1.03
6:10:13:42:194425,22.39,14.17,-106.06,0.06,0.33,0.95,1.01,1.02
6:10:13:42:194553,23.2,11.98,-96.37,0.06,0.19,0.94,0.96,0.99
6:10:13:42:194617,23.43,12.35,-89.44,0.07,0.32,0.88,0.94,0.96
6:10:13:42:194751,23.06,13.11,-89.76,0.08,0.31,0.84,0.9,0.93
6:10:13:42:195141,18.45,7.1,-104.96,0.07,0.32,0.89,0.95,0.91
6:10:13:43:195221,19.86,6.51,-99.53,0.06,0.39,0.89,0.97,0.96
6:10:13:43:195333,17.49,6.73,-96.99,0.13,0.18,0.9,0.92,0.96
6:10:13:43:195413,15.19,4.95,-98.53,0.08,0.31,0.98,1.03,0.96
6:10:13:43:195508,15.26,5.5,-100.88,0.09,0.31,0.95,1.0,1.02
6:10:13:43:195605,15.44,6.33,-101.94,0.08,0.3,0.94,0.99,1.0
6:10:13:43:195700,15.87,6.33,-102.55,0.04,0.29,0.93,0.98,0.99
6:10:13:43:196119,13.49,10.82,-112.88,0.04,0.24,0.83,0.87,0.94
6:10:13:44:196215,12.91,11.59,-114.05,0.05,0.24,0.88,0.91,0.88
6:10:13:44:196312,13.97,11.28,-113.05,0.05,0.26,0.88,0.92,0.91
6:10:13:44:196407,15.0,11.03,-112.51,0.06,0.28,0.9,0.94,0.93
6:10:13:44:196519,14.99,9.91,-113.75,0.06,0.28,0.94,0.98,0.96
6:10:13:44:196615,15.16,7.93,-115.31,0.06,0.27,1.0,1.04,1.0
6:10:13:44:196711,18.08,6.17,-116.45,0.06,0.3,1.03,1.08,1.05
6:10:13:44:197105,25.84,3.77,-126.39,0.07,0.23,1.01,1.04,1.06
6:10:13:45:197217,26.24,1.24,-123.63,-0.0,0.27,1.01,1.05,1.04
6:10:13:45:197313,25.13,2.99,-122.29,0.02,0.25,1.01,1.04,1.04
6:10:13:45:197409,23.81,4.52,-123.89,0.05,0.27,0.96,1.0,1.02
6:10:13:45:197505,22.61,4.68,-127.68,0.05,0.32,0.98,1.03,1.01
6:10:13:45:197633,22.22,5.51,-130.91,0.05,0.26,0.99,1.02,1.03
6:10:13:45:197729,22.68,4.52,-132.52,0.03,0.29,0.96,1.0,1.02
6:10:13:45:198128,19.67,0.89,-126.08,0.04,0.3,0.91,0.96,0.99
6:10:13:46:198224,18.66,-0.09,-129.13,0.06,0.28,0.91,0.95,0.95
6:10:13:46:198337,17.62,-1.74,-133.32,0.06,0.27,0.93,0.97,0.96
6:10:13:46:198416,17.14,-2.79,-134.3,0.06,0.28,0.92,0.96,0.97
6:10:13:46:198512,16.69,-1.98,-132.67,0.08,0.29,0.9,0.95,0.96
6:10:13:46:198624,15.99,-2.18,-130.39,0.07,0.3,0.92,0.97,0.95
6:10:13:46:198720,15.02,-2.83,-129.28,0.05,0.3,0.93,0.98,0.97
6:10:13:46:199123,17.28,0.91,-132.2,0.04,0.27,0.93,0.97,0.98
6:10:13:47:199219,17.28,2.16,-131.35,0.05,0.26,0.9,0.94,0.96
6:10:13:47:199316,17.36,3.26,-129.0,0.04,0.28,0.91,0.95,0.94
6:10:13:47:199411,16.7,4.98,-127.33,0.05,0.28,0.91,0.95,0.95
6:10:13:47:199507,16.35,5.7,-127.42,0.06,0.27,0.9,0.94,0.95
6:10:13:47:199603,16.31,4.96,-127.97,0.05,0.28,0.93,0.97,0.95
6:10:13:47:199723,16.66,5.32,-128.18,0.05,0.27,0.92,0.96,0.97
6:10:13:47:200118,16.88,4.76,-130.44,0.09,0.33,0.91,0.97,0.97
6:10:13:48:200214,18.48,4.14,-129.39,0.06,0.33,0.95,1.0,0.98
6:10:13:48:200325,18.91,2.07,-128.57,0.09,0.28,0.95,0.99,1.0
6:10:13:48:200406,19.3,0.0,-128.76,0.04,0.34,0.98,1.03,1.01
6:10:13:48:200501,20.75,1.17,-131.95,0.07,0.3,0.98,1.03,1.03
6:10:13:48:200629,22.06,2.04,-136.19,0.08,0.39,0.98,1.06,1.04
6:10:13:48:200726,23.06,1.58,-140.77,0.03,0.35,0.98,1.04,1.06
6:10:13:48:201134,21.45,8.69,-146.95,0.02,0.29,0.86,0.91,1.0
6:10:13:49:201230,20.58,9.91,-151.02,0.03,0.27,0.9,0.94,0.92
6:10:13:49:201311,20.39,11.3,-156.41,0.05,0.28,0.86,0.91,0.93
6:10:13:49:201423,20.95,12.95,-161.2,0.06,0.24,0.85,0.89,0.9
6:10:13:49:201532,21.8,12.79,-164.36,0.04,0.21,0.83,0.86,0.88
6:10:13:49:201596,22.93,13.22,-166.24,0.07,0.26,0.81,0.85,0.86
6:10:13:49:201731,20.2,14.68,-166.72,0.07,0.28,0.91,0.95,0.89
6:10:13:49:202119,25.62,14.24,-173.97,0.09,0.25,1.03,1.07,0.99
6:10:13:50:202215,28.19,12.59,-179.18,-0.0,0.3,1.03,1.07,1.07
6:10:13:50:202343,28.13,14.88,175.81,0.01,0.28,1.04,1.08,1.07
6:10:13:50:202438,26.8,18.78,171.46,0.06,0.22,1.02,1.05,1.07
6:10:13:50:202535,28.45,17.75,171.23,0.03,0.26,1.03,1.07,1.05
6:10:13:50:202613,31.37,15.48,174.1,-0.0,0.25,1.02,1.05,1.06
6:10:13:50:202725,35.76,16.84,175.03,0.04,0.32,1.04,1.09,1.06
6:10:13:50:203110,45.98,26.1,155.34,0.12,0.28,1.02,1.06,1.08
6:10:13:51:203237,47.65,24.27,152.76,0.05,0.33,1.06,1.11,1.08
6:10:13:51:203349,49.31,24.42,151.86,0.06,0.34,1.11,1.16,1.12
6:10:13:51:203413,50.09,25.06,149.58,0.09,0.36,1.09,1.16,1.16
6:10:13:51:203546,49.85,25.95,144.39,0.09,0.36,1.16,1.21,1.18
6:10:13:51:203610,51.33,28.62,137.67,0.09,0.32,1.1,1.15,1.19
6:10:13:51:203783,53.08,28.65,132.12,0.05,0.41,1.04,1.11,1.14
6:10:13:51:204112,42.61,27.41,103.7,0.06,0.28,0.85,0.9,1.04
6:10:13:52:204255,39.68,27.87,93.21,0.07,0.27,0.85,0.9,0.9
6:10:13:52:204320,41.72,24.61,86.46,0.06,0.27,0.88,0.93,0.91
6:10:13:52:204464,44.09,22.79,83.42,0.11,0.24,0.87,0.91,0.92
6:10:13:52:204543,45.14,20.19,80.87,0.09,0.34,0.92,0.99,0.94
6:10:13:52:204623,43.77,16.12,76.17,0.09,0.34,0.98,1.04,1.0
6:10:13:52:204784,42.26,14.68,69.49,0.06,0.3,0.94,0.99,1.02
6:10:13:52:205108,36.77,23.71,24.27,0.03,0.35,1.02,1.08,1.02
6:10:13:53:205219,35.6,27.98,16.34,0.06,0.3,1.1,1.14,1.1
6:10:13:53:205316,35.55,30.01,10.31,0.03,0.24,1.0,1.03,1.11
6:10:13:53:205411,34.31,28.72,1.04,-0.05,0.18,0.97,0.99,1.02
6:10:13:53:205508,35.42,28.37,-6.36,-0.1,0.32,1.0,1.06,1.01
6:10:13:53:205619,30.23,37.72,-14.41,0.09,0.26,1.17,1.2,1.11
6:10:13:53:205724,32.11,42.39,-23.98,0.09,0.33,1.08,1.13,1.18
6:10:13:53:206109,1.62,50.51,-90.53,-0.13,0.1,0.82,0.84,1.03
6:10:13:54:206204,9.11,53.27,-88.09,-0.07,0.17,0.81,0.83,0.84
6:10:13:54:206316,19.3,56.08,-78.45,-0.02,0.19,0.75,0.77,0.81
6:10:13:54:206412,27.71,57.65,-69.67,-0.03,0.2,0.79,0.82,0.79
6:10:13:54:206508,24.07,61.29,-78.64,0.08,0.18,0.8,0.82,0.82
6:10:13:54:206620,7.79,55.14,-104.66,0.02,0.37,1.09,1.15,0.93
6:10:13:54:206731,-10.44,49.5,-133.47,0.06,0.29,1.34,1.37,1.22
6:10:13:54:207109,23.07,34.01,-122.78,0.03,0.39,1.28,1.34,1.36
6:10:13:55:207205,17.45,30.71,-134.81,0.03,0.3,1.2,1.23,1.3
6:10:13:55:207332,15.93,28.47,-144.45,0.03,0.25,1.09,1.12,1.19
6:10:13:55:207428,18.2,25.05,-146.54,0.03,0.25,1.04,1.07,1.1
6:10:13:55:207525,21.79,18.56,-142.36,0.05,0.31,0.94,0.99,1.04
6:10:13:55:207620,21.51,11.71,-138.74,0.06,0.32,0.9,0.96,0.98
6:10:13:55:207724,19.38,8.55,-138.22,0.07,0.3,0.88,0.93,0.95
6:10:13:55:208108,8.41,5.05,-151.21,0.04,0.26,0.89,0.93,0.93
6:10:13:56:208205,3.42,7.03,-149.4,0.03,0.2,0.93,0.95,0.93
6:10:13:56:208316,1.89,8.34,-142.74,-0.04,0.22,0.95,0.98,0.96
6:10:13:56:208412,1.61,9.42,-136.97,-0.06,0.17,0.93,0.95,0.97
6:10:13:56:208509,-1.37,10.01,-137.71,-0.1,0.24,0.92,0.95,0.95
6:10:13:56:208621,-8.07,10.77,-140.08,-0.05,0.13,0.91,0.92,0.94
6:10:13:56:208748,-12.31,9.69,-140.85,-0.03,0.17,0.93,0.95,0.93
6:10:13:56:209129,-12.94,1.46,-133.06,0.03,0.21,0.96,0.99,0.96
6:10:13:57:209209,-6.33,-2.71,-129.29,-0.04,0.18,0.93,0.95,0.97
6:10:13:57:209305,-2.34,-2.48,-131.58,-0.03,0.22,0.94,0.97,0.96
6:10:13:57:209401,-3.3,-0.84,-132.03,0.01,0.16,1.03,1.05,0.99
6:10:13:57:209529,-4.58,0.17,-124.6,0.01,0.15,1.09,1.1,1.07
6:10:13:57:209625,4.11,-2.0,-117.17,-0.11,0.25,1.18,1.21,1.13
6:10:13:57:209759,9.02,-4.09,-121.35,-0.64,0.07,1.86,1.97,1.46
6:10:13:57:210107,22.27,-1.85,-123.89,-0.22,0.18,1.38,1.41,1.78
6:10:13:58:210251,15.97,2.97,-135.45,-0.05,0.03,1.18,1.18,1.33
6:10:13:58:210299,22.56,-2.18,-141.15,-0.06,0.19,1.11,1.12,1.16
6:10:13:58:210411,32.97,-6.54,-139.56,-0.02,0.23,1.11,1.14,1.13
6:10:13:58:210539,33.74,-10.46,-128.67,-0.12,0.31,1.06,1.11,1.13
6:10:13:58:210619,23.93,-7.49,-118.4,-0.03,0.11,1.02,1.03,1.09
6:10:13:58:210731,20.9,-6.77,-116.36,-0.06,0.2,0.95,0.97,1.01
6:10:13:58:211121,17.0,-3.37,-138.0,-0.06,0.12,0.88,0.89,0.95
6:10:13:59:211232,13.59,-2.46,-134.31,-0.07,0.03,0.84,0.84,0.88
6:10:13:59:211313,13.89,-4.29,-129.3,-0.11,0.07,0.82,0.83,0.84
6:10:13:59:211408,17.04,-7.74,-126.96,-0.12,0.19,0.84,0.87,0.84
6:10:13:59:211520,14.73,-7.47,-131.95,-0.12,0.17,0.81,0.83,0.86
6:10:13:59:211632,9.74,-3.33,-143.27,-0.09,0.1,0.8,0.81,0.83
6:10:13:59:211753,5.4,-0.94,-151.54,-0.03,0.05,0.83,0.83,0.82
6:10:13:59:212120,2.59,3.28,-127.82,-0.09,0.19,0.87,0.9,0.85
6:10:14:0:212200,0.98,3.71,-128.9,-0.04,0.18,0.88,0.9,0.9
6:10:14:0:212312,0.39,3.23,-131.98,-0.04,0.08,0.91,0.91,0.9
6:10:14:0:212424,2.45,0.94,-131.84,-0.11,0.21,0.93,0.96,0.93
6:10:14:0:212520,3.24,-0.13,-131.82,-0.08,0.14,0.97,0.98,0.97
6:10:14:0:212600,1.66,0.4,-130.58,-0.09,0.17,1.0,1.01,0.99
6:10:14:0:212712,3.32,-0.03,-128.05,-0.07,0.12,0.98,0.99,1.01
6:10:14:0:213134,12.27,-8.35,-125.19,-0.13,0.14,1.01,1.03,1.01
6:10:14:1:213214,11.96,-7.84,-122.59,-0.19,0.15,1.13,1.15,1.07
6:10:14:1:213326,10.17,-5.01,-127.32,-0.13,0.08,1.12,1.13,1.15
6:10:14:1:213677,13.6,-7.31,-138.1,-0.17,0.03,1.22,1.24,1.17
6:10:14:1:213741,16.2,-9.29,-139.57,-0.21,0.07,1.37,1.39,1.29
6:10:14:1:213741,18.02,-9.6,-132.89,-0.19,0.08,1.28,1.29,1.36
6:10:14:1:213742,19.6,-14.25,-128.94,-0.2,0.11,1.22,1.24,1.27
6:10:14:2:214221,22.76,-14.11,-144.22,-0.12,0.09,0.93,0.94,1.14
6:10:14:2:214316,23.96,-12.55,-142.27,-0.06,0.08,0.82,0.83,0.9
6:10:14:2:214333,22.82,-14.94,-138.94,-0.1,0.12,0.86,0.88,0.84
6:10:14:2:214460,19.46,-14.5,-136.93,-0.12,0.15,0.89,0.91,0.89
6:10:14:2:214524,15.15,-8.63,-137.57,-0.08,0.11,0.84,0.85,0.89
6:10:14:2:214604,12.3,-5.22,-139.0,-0.08,0.1,0.84,0.85,0.85
6:10:14:2:214732,9.35,-4.16,-138.6,-0.1,0.09,0.88,0.89,0.86
