sysTime,roll,pitch,yaw,ax,ay,az
4:11:20:16:9848,-91.8,-75.92,26.85,-0.85,-0.28,-0.09
4:11:20:16:9848,-90.94,-73.34,23.28,-0.93,-0.27,-0.04
4:11:20:16:9896,-102.41,-73.48,29.95,-1.06,-0.16,-0.02
4:11:20:17:9944,-119.92,-74.13,43.18,-1.15,-0.14,-0.08
4:11:20:17:10354,-111.22,-79.5,30.92,-0.99,-0.25,-0.13
4:11:20:17:10450,-98.78,-78.21,15.99,-1.01,-0.25,-0.01
4:11:20:17:10561,-86.04,-74.22,3.46,-0.9,-0.37,0.09
4:11:20:17:10658,-90.35,-70.85,5.97,-1.06,-0.31,0.08
4:11:20:17:10753,-87.92,-70.12,5.48,-0.84,-0.34,0.18
4:11:20:17:10833,-83.48,-69.61,6.48,-0.97,-0.35,0.17
4:11:20:18:10962,-79.45,-71.44,12.43,-0.92,-0.49,0.13
4:11:20:18:11355,-66.21,-62.04,33.97,-1.13,-0.08,0.18
4:11:20:18:11451,-64.69,-63.63,44.51,-0.87,-0.1,0.2
4:11:20:18:11563,-59.3,-67.62,48.3,-0.96,-0.1,0.12
4:11:20:18:11659,-59.03,-68.68,55.35,-0.97,-0.18,0.19
4:11:20:18:11755,-51.55,-66.56,54.61,-0.98,-0.35,0.24
4:11:20:18:11851,-52.53,-60.09,63.75,-1.25,-0.56,0.19
4:11:20:19:11963,-52.57,-59.67,73.89,-0.9,-0.3,0.19
4:11:20:19:12354,-29.27,-72.53,81.44,-1.16,0.06,0.38
4:11:20:19:12434,-34.84,-73.96,85.85,-1.08,0.03,0.23
4:11:20:19:12546,-37.1,-75.33,85.25,-0.83,-0.0,0.17
4:11:20:19:12642,-35.56,-75.42,80.16,-0.61,0.02,0.3
4:11:20:19:12738,-31.74,-74.64,73.58,-1.04,-0.01,0.35
4:11:20:19:12834,-39.64,-75.2,84.22,-1.01,-0.05,0.52
4:11:20:20:12962,-62.42,-74.53,109.55,-1.08,-0.29,0.36
4:11:20:20:13357,-69.87,-73.02,123.72,-1.09,-0.12,0.34
4:11:20:20:13452,-67.99,-72.61,120.4,-1.31,-0.25,0.27
4:11:20:20:13563,-77.59,-72.53,127.25,-0.95,-0.12,0.22
4:11:20:20:13643,-78.81,-74.86,127.61,-0.71,-0.09,0.22
4:11:20:20:13740,-78.68,-75.09,127.7,-0.89,-0.01,0.33
4:11:20:20:13835,-70.03,-76.22,124.33,-1.16,0.08,0.49
4:11:20:21:13947,-42.31,-78.8,105.47,-1.18,-0.0,0.38
4:11:20:21:14345,-35.41,-61.97,105.98,-0.76,0.11,0.63
4:11:20:21:14442,-26.32,-63.51,98.34,-0.74,0.14,0.66
4:11:20:21:14553,-24.42,-65.59,96.39,-0.8,0.17,0.67
4:11:20:21:14649,-33.59,-67.12,102.98,-0.96,0.11,0.62
4:11:20:21:14761,-31.35,-69.62,99.91,-0.66,0.17,0.52
4:11:20:21:14857,-41.25,-69.96,108.72,-0.59,0.04,0.54
4:11:20:22:14953,-43.51,-68.74,109.07,-0.73,0.11,0.64
4:11:20:22:15342,-58.21,-63.94,131.44,-0.67,-0.02,0.52
4:11:20:22:15453,-63.99,-64.61,140.39,-0.67,0.01,0.52
4:11:20:22:15533,-64.35,-64.85,144.49,-0.88,0.01,0.61
4:11:20:22:15645,-66.87,-66.98,149.29,-1.08,0.1,0.53
4:11:20:22:15758,-66.84,-71.39,148.49,-0.93,0.15,0.58
4:11:20:22:15869,-69.56,-72.98,148.35,-0.89,0.14,0.4
4:11:20:23:15949,-71.25,-74.36,150.7,-0.74,0.08,0.33
4:11:20:23:16362,-51.43,-73.88,127.5,-1.06,0.03,0.62
4:11:20:23:16442,-59.61,-72.77,136.78,-0.9,0.0,0.43
4:11:20:23:16538,-62.82,-75.19,141.76,-0.65,0.2,0.34
4:11:20:23:16634,-74.13,-77.45,151.1,-0.78,0.13,0.48
4:11:20:23:16745,-65.53,-78.05,142.31,-0.92,0.08,0.53
4:11:20:23:16842,-74.84,-78.49,148.33,-1.04,0.1,0.51
4:11:20:24:16937,-88.19,-81.81,155.31,-1.16,0.07,0.41
4:11:20:24:17356,64.75,-88.03,-17.2,-0.94,0.14,0.49
4:11:20:24:17484,143.6,-89.01,-98.29,-0.96,0.07,0.37
4:11:20:24:17532,-176.66,-86.45,-137.59,-1.01,-0.02,0.21
4:11:20:24:17644,178.83,-79.65,-135.83,-1.02,0.07,0.01
4:11:20:24:17740,159.39,-73.09,-119.23,-0.77,0.3,0.04
4:11:20:24:17899,166.6,-70.41,-126.93,-1.16,0.42,0.0
4:11:20:25:17948,166.01,-71.2,-130.01,-1.19,0.4,-0.03
4:11:20:25:18374,132.77,-67.65,-119.97,-0.74,0.41,0.08
4:11:20:25:18453,130.6,-63.49,-121.59,-0.84,0.51,0.01
4:11:20:25:18549,125.9,-60.44,-119.6,-0.78,0.64,-0.03
4:11:20:25:18661,128.55,-58.74,-126.54,-0.88,0.7,-0.05
4:11:20:25:18741,132.8,-57.21,-134.01,-0.81,0.55,-0.07
4:11:20:25:18853,133.88,-54.99,-138.29,-0.78,0.6,-0.09
4:11:20:26:18949,137.01,-50.64,-145.41,-0.91,0.6,-0.11
4:11:20:26:19344,144.0,-46.43,-164.95,-0.76,0.56,-0.39
4:11:20:26:19456,143.38,-48.45,-168.06,-0.78,0.62,-0.31
4:11:20:26:19536,147.72,-52.57,-176.05,-0.89,0.49,-0.35
4:11:20:26:19648,147.0,-56.3,-178.7,-0.87,0.38,-0.25
4:11:20:26:19760,144.16,-58.71,-179.25,-0.86,0.37,-0.29
4:11:20:26:19839,140.16,-56.79,-177.04,-0.98,0.47,-0.22
4:11:20:27:19952,138.22,-51.25,-175.26,-0.79,0.52,-0.29
4:11:20:27:20349,130.42,-29.79,-160.75,-0.39,0.8,-0.6
4:11:20:27:20445,136.11,-11.16,-171.48,-0.19,0.82,-0.58
4:11:20:27:20572,136.56,2.57,-176.11,-0.09,0.86,-0.55
4:11:20:27:20652,133.72,10.77,-177.84,0.13,0.85,-0.44
4:11:20:27:20764,131.85,12.43,-178.08,0.16,0.87,-0.53
4:11:20:27:20844,130.14,12.0,-177.91,0.19,0.87,-0.49
4:11:20:28:20940,130.9,8.72,-177.71,0.02,0.75,-0.59
4:11:20:28:21351,130.45,8.39,171.67,0.11,0.9,-0.39
4:11:20:28:21447,128.24,11.07,168.66,0.13,0.85,-0.48
4:11:20:28:21544,127.71,10.13,166.98,0.12,0.8,-0.53
4:11:20:28:21656,129.02,6.6,168.61,0.02,0.76,-0.52
4:11:20:28:21752,130.79,5.17,168.85,-0.02,0.84,-0.63
4:11:20:28:21879,131.27,5.89,168.0,0.05,0.87,-0.67
4:11:20:29:21944,130.71,5.41,167.76,0.04,0.83,-0.57
4:11:20:29:22351,118.3,27.32,143.64,0.35,0.92,-0.38
4:11:20:29:22479,99.27,39.46,115.99,0.58,0.71,0.0
4:11:20:29:22576,80.9,43.72,95.42,0.6,0.62,0.34
4:11:20:29:22655,66.78,43.82,84.1,0.6,0.85,0.31
4:11:20:29:22751,64.07,43.85,85.2,0.57,0.78,0.43
4:11:20:29:22879,65.36,45.93,88.57,0.73,0.62,0.35
4:11:20:30:22975,65.48,43.52,87.62,0.69,0.83,0.35
4:11:20:30:23348,91.47,43.83,120.06,0.87,0.65,-0.01
4:11:20:30:23443,94.85,45.62,125.54,0.65,0.86,-0.05
4:11:20:30:23539,94.35,44.94,129.03,0.75,0.8,0.07
4:11:20:30:23636,98.23,40.82,136.19,0.75,0.85,0.04
4:11:20:30:23764,100.44,33.96,139.87,0.3,0.89,0.1
4:11:20:30:23859,105.97,29.03,144.96,0.14,0.84,-0.07
4:11:20:31:23939,109.91,27.85,149.42,0.34,0.87,-0.25
4:11:20:31:24344,120.1,20.02,164.14,0.34,0.96,-0.37
4:11:20:31:24456,118.77,16.25,162.04,0.16,0.93,-0.25
4:11:20:31:24552,121.87,9.7,166.27,0.14,0.89,-0.47
4:11:20:31:24648,127.87,1.61,173.21,-0.0,0.88,-0.75
4:11:20:31:24744,132.11,-6.53,173.81,-0.12,0.72,-0.58
4:11:20:31:24840,138.28,-14.54,170.54,-0.33,0.55,-0.71
4:11:20:32:24935,144.18,-20.7,171.05,-0.29,0.44,-0.79
4:11:20:32:25352,147.34,-24.62,176.88,-0.41,0.47,-0.7
4:11:20:32:25447,148.76,-26.2,176.12,-0.42,0.56,-0.67
4:11:20:32:25575,149.47,-30.69,175.97,-0.5,0.49,-0.7
4:11:20:32:25671,149.27,-34.66,175.9,-0.53,0.55,-0.78
4:11:20:32:25751,150.42,-36.45,172.97,-0.57,0.55,-0.72
4:11:20:32:25848,150.0,-36.52,168.98,-0.72,0.5,-0.38
4:11:20:33:25943,151.65,-30.53,164.71,-0.56,0.45,-0.72
4:11:20:33:26340,157.0,-38.36,164.84,-0.64,0.34,-0.71
4:11:20:33:26468,162.37,-38.73,162.82,-0.67,0.39,-0.75
4:11:20:33:26548,164.81,-37.98,159.9,-0.59,0.3,-0.76
4:11:20:33:26643,167.32,-40.7,158.17,-0.84,0.37,-0.78
4:11:20:33:26756,167.74,-39.49,156.59,-0.65,0.31,-0.6
4:11:20:33:26851,166.86,-42.43,154.47,-0.67,0.22,-0.7
4:11:20:34:26963,167.93,-44.17,150.63,-0.82,0.21,-0.62
4:11:20:34:27352,160.18,-57.92,146.77,-0.87,0.22,-0.46
4:11:20:34:27432,155.46,-57.68,149.61,-0.91,0.26,-0.45
4:11:20:34:27544,147.49,-52.58,158.23,-0.9,0.45,-0.47
4:11:20:34:27640,139.85,-43.22,164.51,-0.68,0.55,-0.58
4:11:20:34:27736,140.67,-40.46,164.47,-0.6,0.54,-0.59
4:11:20:34:27848,141.95,-40.46,164.72,-0.65,0.48,-0.61
4:11:20:35:27944,142.58,-40.16,163.21,-0.69,0.49,-0.59
4:11:20:35:28338,143.96,-42.38,160.32,-0.78,0.41,-0.56
4:11:20:35:28451,144.55,-42.37,159.59,-0.69,0.47,-0.59
4:11:20:35:28547,144.86,-43.08,158.62,-0.71,0.44,-0.57
4:11:20:35:28642,145.49,-42.76,158.0,-0.76,0.49,-0.61
4:11:20:35:28738,145.89,-41.15,159.43,-0.7,0.45,-0.57
4:11:20:35:28834,146.14,-40.48,160.73,-0.63,0.43,-0.61
4:11:20:36:28930,150.33,-42.64,160.03,-0.64,0.31,-0.59
4:11:20:36:29377,151.16,-47.23,155.13,-0.77,0.35,-0.64
4:11:20:36:29458,150.2,-44.59,155.84,-0.71,0.35,-0.63
4:11:20:36:29554,149.0,-40.34,157.33,-0.62,0.47,-0.57
4:11:20:36:29634,148.29,-40.73,155.65,-0.63,0.44,-0.6
4:11:20:36:29746,148.84,-42.27,156.45,-0.63,0.4,-0.53
4:11:20:36:29842,150.33,-43.86,155.94,-0.75,0.34,-0.63
4:11:20:37:29937,149.84,-43.06,156.6,-0.75,0.46,-0.66
4:11:20:37:30346,150.86,-41.93,156.3,-0.69,0.4,-0.69
4:11:20:37:30442,151.25,-41.01,158.16,-0.64,0.4,-0.69
4:11:20:37:30538,150.0,-40.52,158.74,-0.62,0.42,-0.66
4:11:20:37:30650,149.48,-41.11,158.21,-0.73,0.46,-0.62
4:11:20:37:30746,149.9,-41.28,158.03,-0.65,0.41,-0.63
4:11:20:37:30842,150.61,-41.76,156.77,-0.68,0.42,-0.67
4:11:20:38:30938,151.54,-41.14,156.48,-0.69,0.38,-0.7
4:11:20:38:31383,151.3,-41.24,156.48,-0.7,0.38,-0.66
4:11:20:38:31447,150.93,-41.49,157.02,-0.68,0.37,-0.61
4:11:20:38:31543,150.71,-41.97,156.95,-0.71,0.36,-0.63
4:11:20:38:31640,149.5,-42.18,157.64,-0.72,0.22,-0.61
4:11:20:38:31767,149.1,-42.3,156.88,-0.67,0.45,-0.69
4:11:20:38:31847,149.77,-43.55,155.59,-0.74,0.42,-0.67
4:11:20:39:31943,150.19,-44.06,156.07,-0.7,0.37,-0.63
4:11:20:39:32358,151.5,-43.03,157.51,-0.73,0.35,-0.62
4:11:20:39:32454,153.02,-43.77,154.96,-0.71,0.37,-0.61
4:11:20:39:32549,153.94,-45.06,153.25,-0.7,0.34,-0.64
4:11:20:39:32662,154.13,-45.99,153.53,-0.73,0.31,-0.65
4:11:20:39:32806,154.13,-46.67,153.6,-0.77,0.32,-0.65
4:11:20:39:32838,154.23,-47.6,153.78,-0.75,0.28,-0.63
4:11:20:40:32995,153.61,-47.84,153.73,-0.81,0.34,-0.6
4:11:20:40:33340,155.9,-45.05,151.19,-0.76,0.3,-0.67
4:11:20:40:33436,154.83,-43.72,152.05,-0.71,0.34,-0.68
4:11:20:40:33564,153.19,-42.69,152.87,-0.62,0.35,-0.65
4:11:20:40:33676,151.44,-43.01,154.58,-0.67,0.4,-0.72
4:11:20:40:33740,152.21,-43.25,155.22,-0.68,0.38,-0.64
4:11:20:40:33852,153.6,-44.02,157.07,-0.73,0.36,-0.62
4:11:20:41:33948,154.12,-43.92,157.9,-0.72,0.31,-0.64
4:11:20:41:34344,155.36,-44.42,159.62,-0.75,0.34,-0.65
4:11:20:41:34455,155.19,-44.23,160.01,-0.7,0.32,-0.6
4:11:20:41:34536,155.29,-44.87,159.79,-0.75,0.34,-0.64
4:11:20:41:34648,155.32,-44.73,159.57,-0.74,0.32,-0.62
4:11:20:41:34760,155.07,-44.31,159.58,-0.74,0.37,-0.66
4:11:20:41:34839,154.55,-44.13,159.78,-0.72,0.31,-0.64
4:11:20:42:34935,154.55,-44.1,159.21,-0.7,0.32,-0.63
4:11:20:42:35345,151.87,-43.23,159.48,-0.7,0.4,-0.57
4:11:20:42:35441,151.03,-42.12,159.72,-0.68,0.42,-0.65
4:11:20:42:35537,150.67,-41.68,159.54,-0.68,0.43,-0.65
4:11:20:42:35634,150.82,-41.66,159.32,-0.68,0.4,-0.63
4:11:20:42:35761,151.27,-42.01,158.87,-0.7,0.4,-0.64
4:11:20:42:35841,151.26,-42.13,158.64,-0.69,0.38,-0.63
4:11:20:43:35952,150.78,-42.5,158.89,-0.75,0.41,-0.75
4:11:20:43:36354,149.71,-43.06,160.53,-0.77,0.41,-0.61
4:11:20:43:36450,150.34,-44.03,160.31,-0.69,0.41,-0.6
4:11:20:43:36561,150.0,-44.81,160.33,-0.72,0.37,-0.61
4:11:20:43:36641,149.08,-45.46,160.16,-0.74,0.42,-0.63
4:11:20:43:36753,147.96,-46.33,159.67,-0.81,0.37,-0.57
4:11:20:43:36850,146.2,-47.64,159.3,-0.75,0.4,-0.59
4:11:20:44:36972,142.71,-51.12,159.31,-0.72,0.32,-0.39
4:11:20:44:37340,59.3,-61.87,-141.75,-0.79,0.33,0.33
4:11:20:44:37452,38.21,-53.06,-125.77,-0.71,0.31,0.6
4:11:20:44:37563,24.83,-42.77,-115.14,-0.71,0.27,0.8
4:11:20:44:37660,15.69,-31.7,-105.66,-0.61,0.24,0.92
4:11:20:44:37756,10.74,-20.81,-98.02,-0.47,0.14,1.03
4:11:20:44:37883,7.69,-12.12,-92.76,-0.37,0.15,1.1
4:11:20:45:37947,4.9,-6.51,-89.57,-0.16,0.14,1.02
4:11:20:45:38364,2.04,3.7,-109.35,0.02,0.09,1.2
4:11:20:45:38444,2.79,4.01,-119.62,0.03,0.01,1.03
4:11:20:45:38540,3.38,4.11,-127.0,0.06,-0.03,0.89
4:11:20:45:38652,3.99,4.8,-129.94,0.09,-0.03,0.75
4:11:20:45:38748,5.57,6.64,-129.78,0.06,-0.02,0.82
4:11:20:45:38844,8.51,9.65,-127.97,0.05,-0.04,0.96
4:11:20:46:38956,11.65,11.39,-124.38,0.05,-0.03,1.18
4:11:20:46:39350,-0.34,7.24,-100.09,0.04,0.02,1.02
4:11:20:46:39446,-4.96,6.01,-93.95,0.12,0.0,1.1
4:11:20:46:39558,-8.68,6.41,-89.25,0.1,0.02,1.04
4:11:20:46:39653,-9.49,6.14,-86.11,0.06,0.0,0.92
4:11:20:46:39750,-9.75,4.06,-83.06,0.1,-0.04,0.81
4:11:20:46:39846,-8.73,1.75,-80.7,0.09,-0.08,0.77
4:11:20:47:39941,-7.67,-0.11,-76.59,0.08,-0.11,0.85
4:11:20:47:40350,-10.14,0.78,-43.58,-0.0,0.0,0.91
4:11:20:47:40443,-12.29,0.1,-29.39,0.03,0.01,0.9
4:11:20:47:40539,-14.74,-1.01,-13.3,0.02,0.05,0.89
4:11:20:47:40651,-17.23,-2.91,1.66,0.01,0.08,0.9
4:11:20:47:40747,-20.61,-5.28,13.89,-0.02,0.09,0.87
4:11:20:47:40843,-24.17,-8.33,24.81,-0.04,0.1,0.87
4:11:20:48:40939,-27.85,-11.52,34.29,-0.06,0.11,0.94
4:11:20:48:41337,-33.43,-24.42,59.73,-0.06,-0.03,1.06
4:11:20:48:41449,-36.79,-29.13,64.53,-0.06,-0.03,1.01
4:11:20:48:41561,-35.65,-29.9,66.73,-0.03,0.01,1.01
4:11:20:48:41657,-33.96,-29.75,67.86,-0.05,0.04,1.0
4:11:20:48:41753,-30.97,-29.1,68.11,-0.05,0.04,0.97
4:11:20:49:41929,-27.88,-27.76,69.02,-0.06,0.07,0.98
4:11:20:49:41945,-29.28,-28.46,71.58,-0.18,-0.04,1.08
4:11:20:49:42380,-24.61,-25.67,74.33,0.02,0.07,0.97
4:11:20:49:42524,-22.8,-24.61,75.44,0.02,0.06,0.98
4:11:20:49:42540,-21.43,-23.62,76.88,0.02,0.05,0.98
4:11:20:49:42668,-20.31,-22.63,78.59,0.01,0.06,0.98
4:11:20:49:42763,-19.45,-21.71,80.56,0.01,0.06,0.98
4:11:20:49:42844,-18.81,-20.83,82.8,0.01,0.06,0.98
4:11:20:50:43036,-18.28,-19.96,85.19,0.01,0.06,0.98
4:11:20:50:43370,-16.93,-16.54,96.46,0.01,0.06,0.98
4:11:20:50:43482,-16.66,-15.67,99.65,0.01,0.06,0.98
4:11:20:50:43547,-16.39,-14.79,102.96,0.01,0.06,0.98
4:11:20:50:43674,-16.13,-13.89,106.35,0.02,0.06,0.98
4:11:20:50:43738,-15.8,-12.98,109.89,0.01,0.06,0.98
4:11:20:50:43850,-15.46,-12.05,113.51,0.02,0.06,0.98
4:11:20:51:43962,-15.07,-11.12,117.2,0.01,0.06,0.98
4:11:20:51:44396,-13.01,-7.39,132.44,0.02,0.06,0.98
4:11:20:51:44459,-12.37,-6.52,136.23,0.02,0.06,0.98
4:11:20:51:44604,-11.68,-5.7,139.82,0.02,0.06,0.98
4:11:20:51:44652,-10.91,-4.94,143.32,0.02,0.06,0.98
4:11:20:51:44748,-10.19,-4.22,146.71,0.01,0.06,0.98
4:11:20:51:44843,-9.44,-3.56,149.99,0.01,0.06,0.98
4:11:20:52:44940,-8.7,-2.94,153.2,0.02,0.06,0.98
4:11:20:52:45350,-5.86,-0.92,165.02,0.02,0.06,0.98
4:11:20:52:45430,-5.23,-0.52,167.83,0.01,0.06,0.97
4:11:20:52:45558,-4.62,-0.17,170.52,0.02,0.06,0.97
4:11:20:52:45654,-4.02,0.13,173.01,0.01,0.06,0.98
4:11:20:52:45750,-3.44,0.38,175.35,0.01,0.06,0.98
4:11:20:52:45846,-2.88,0.58,177.51,0.02,0.06,0.98
4:11:20:53:45957,-2.37,0.76,179.58,0.01,0.06,0.98
4:11:20:53:46351,-0.58,1.19,-173.57,0.02,0.06,0.98
4:11:20:53:46448,-0.21,1.25,-172.14,0.01,0.06,0.97
4:11:20:53:46559,0.12,1.3,-170.82,0.02,0.06,0.98
4:11:20:53:46655,0.43,1.33,-169.57,0.02,0.06,0.98
4:11:20:53:46751,0.73,1.34,-168.46,0.01,0.06,0.98
4:11:20:53:46847,1.0,1.34,-167.43,0.02,0.06,0.97
4:11:20:54:46944,1.25,1.34,-166.51,0.01,0.06,0.98
4:11:20:54:47351,2.03,1.31,-163.4,0.01,0.06,0.97
4:11:20:54:47463,2.18,1.3,-162.76,0.01,0.06,0.98
4:11:20:54:47575,2.32,1.28,-162.17,0.02,0.06,0.98
4:11:20:54:47639,2.46,1.26,-161.65,0.02,0.06,0.98
4:11:20:54:47735,2.56,1.25,-161.12,0.02,0.06,0.98
4:11:20:54:47831,2.67,1.23,-160.68,0.02,0.06,0.97
4:11:20:55:47943,2.77,1.21,-160.27,0.02,0.06,0.97
4:11:20:55:48365,3.07,1.16,-158.85,0.01,0.06,0.98
4:11:20:55:48444,3.14,1.14,-158.59,0.02,0.06,0.98
4:11:20:55:48557,3.21,1.12,-158.37,0.02,0.06,0.98
4:11:20:55:48652,3.27,1.11,-158.13,0.02,0.06,0.98
4:11:20:55:48748,3.32,1.09,-157.93,0.02,0.06,0.98
4:11:20:55:48860,3.46,1.05,-157.96,0.02,0.08,0.97
4:11:20:56:48955,3.47,1.04,-157.74,0.02,0.06,0.98
4:11:20:56:49368,3.72,0.95,-157.86,0.01,0.06,0.98
4:11:20:56:49447,3.75,0.95,-157.84,0.02,0.06,0.98
4:11:20:56:49560,3.77,0.94,-157.86,0.02,0.06,0.98
4:11:20:56:49639,3.8,0.93,-157.94,0.02,0.06,0.97
4:11:20:56:49735,3.86,0.91,-158.11,0.02,0.06,0.98
4:11:20:56:49864,3.91,0.89,-158.29,0.02,0.06,0.98
4:11:20:57:49943,3.92,0.89,-158.37,0.02,0.06,0.98
4:11:20:57:50379,3.91,0.88,-158.49,0.02,0.06,0.98
4:11:20:57:50443,3.93,0.87,-158.58,0.02,0.06,0.98
4:11:20:57:50555,3.93,0.88,-158.62,0.02,0.06,0.98
4:11:20:57:50699,3.92,0.88,-158.63,0.02,0.06,0.98
4:11:20:57:50747,3.93,0.88,-158.67,0.02,0.06,0.98
4:11:20:57:50843,3.94,0.88,-158.75,0.02,0.06,0.98
4:11:20:58:50987,3.93,0.88,-158.75,0.02,0.06,0.97
4:11:20:58:51357,3.91,0.91,-158.7,0.02,0.08,0.98
4:11:20:58:51437,3.99,0.89,-158.92,0.02,0.06,0.98
4:11:20:58:51548,3.96,0.9,-158.89,0.02,0.07,0.98
4:11:20:58:51644,3.95,0.91,-158.87,0.02,0.06,0.98
4:11:20:58:51741,3.93,0.91,-158.82,0.02,0.06,0.98
4:11:20:58:51836,3.91,0.92,-158.78,0.02,0.06,0.98
4:11:20:59:51964,3.9,0.92,-158.74,0.02,0.06,0.98
4:11:20:59:52341,3.87,0.94,-158.58,0.02,0.06,0.98
4:11:20:59:52453,3.86,0.93,-158.56,0.01,0.05,0.98
4:11:20:59:52549,3.89,0.93,-158.62,0.02,0.07,0.98
4:11:20:59:52644,3.92,0.92,-158.75,0.02,0.06,0.98
4:11:20:59:52741,3.94,0.91,-158.82,0.01,0.06,0.98
4:11:20:59:52853,3.92,0.91,-158.78,0.02,0.06,0.97
4:11:21:0:52948,3.91,0.92,-158.75,0.02,0.06,0.98
4:11:21:0:53376,3.9,0.93,-158.72,0.02,0.06,0.97
4:11:21:0:53455,3.9,0.93,-158.74,0.01,0.06,0.98
4:11:21:0:53551,3.9,0.93,-158.71,0.02,0.07,0.98
4:11:21:0:53647,3.88,0.93,-158.64,0.02,0.07,0.98
4:11:21:0:53743,3.92,0.92,-158.67,0.03,0.06,0.97
4:11:21:0:53839,3.84,0.96,-158.33,0.02,0.06,0.98
4:11:21:1:53951,3.78,0.98,-158.04,0.02,0.06,0.98
4:11:21:1:54358,3.76,0.98,-157.46,0.02,0.06,0.98
4:11:21:1:54439,3.78,0.98,-157.38,0.02,0.06,0.98
4:11:21:1:54535,3.79,0.97,-157.36,0.02,0.06,0.98
4:11:21:1:54647,3.82,0.96,-157.34,0.02,0.06,0.98
4:11:21:1:54758,3.83,0.97,-157.32,0.02,0.06,0.97
4:11:21:1:54855,3.84,0.96,-157.3,0.02,0.06,0.97
4:11:21:2:54951,3.84,0.96,-157.28,0.02,0.06,0.98
4:11:21:2:55345,3.88,0.96,-157.17,0.02,0.06,0.98
4:11:21:2:55441,3.87,0.95,-157.15,0.02,0.06,0.98
4:11:21:2:55553,3.87,0.95,-157.12,0.02,0.07,0.98
4:11:21:2:55633,3.88,0.94,-157.13,0.01,0.06,0.97
4:11:21:2:55760,3.88,0.93,-157.14,0.02,0.06,0.98
4:11:21:2:55841,3.88,0.94,-157.12,0.02,0.06,0.97
4:11:21:3:55953,3.89,0.94,-157.12,0.02,0.06,0.98
4:11:21:3:56342,3.9,0.94,-157.09,0.03,0.07,0.97
4:11:21:3:56454,3.9,0.93,-157.02,0.01,0.06,0.97
4:11:21:3:56629,3.87,0.96,-156.85,0.02,0.06,0.98
4:11:21:3:56742,3.84,0.97,-156.7,0.02,0.06,0.98
4:11:21:3:56758,3.82,0.98,-156.54,0.02,0.06,0.98
4:11:21:3:56853,3.8,0.99,-156.39,0.02,0.06,0.98
4:11:21:4:56964,3.8,1.0,-156.28,0.02,0.06,0.98
4:11:21:4:57336,3.81,0.99,-155.93,0.02,0.06,0.98
4:11:21:4:57464,3.84,0.97,-155.91,0.02,0.05,0.97
4:11:21:4:57544,3.99,0.92,-156.32,0.02,0.07,0.98
4:11:21:4:57640,4.07,0.9,-156.61,0.02,0.07,0.97
4:11:21:4:57768,4.12,0.87,-156.85,0.02,0.06,0.97
4:11:21:4:57848,4.16,0.86,-157.11,0.02,0.07,0.97
4:11:21:5:57944,4.18,0.85,-157.3,0.02,0.07,0.97
4:11:21:5:58359,4.16,0.84,-157.85,0.01,0.04,0.98
4:11:21:5:58440,4.23,0.83,-158.14,0.01,0.06,0.98
4:11:21:5:58551,4.21,0.83,-158.24,0.02,0.07,0.97
4:11:21:5:58647,4.18,0.84,-158.32,0.02,0.06,0.98
4:11:21:5:58743,4.16,0.85,-158.41,0.02,0.07,0.98
4:11:21:5:58871,4.14,0.85,-158.48,0.02,0.06,0.98
4:11:21:6:58951,4.13,0.86,-158.54,0.02,0.06,0.97
4:11:21:6:59354,4.07,0.88,-158.79,0.02,0.06,0.97
4:11:21:6:59450,4.06,0.88,-158.85,0.02,0.06,0.98
4:11:21:6:59546,4.05,0.88,-158.9,0.01,0.07,0.98
4:11:21:6:59641,4.05,0.89,-158.93,0.02,0.06,0.98
4:11:21:6:59737,4.05,0.89,-159.01,0.02,0.06,0.98
4:11:21:6:59865,4.04,0.89,-159.03,0.02,0.06,0.97
4:11:21:7:59930,4.03,0.89,-159.07,0.02,0.06,0.98
4:11:21:7:60352,4.05,0.89,-159.2,0.01,0.03,0.99
4:11:21:7:60447,4.04,0.9,-159.22,0.02,0.06,0.98
4:11:21:7:60543,4.01,0.91,-159.14,0.03,0.07,0.98
4:11:21:7:60639,4.0,0.92,-159.17,0.02,0.06,0.98
4:11:21:7:60734,3.98,0.92,-159.14,0.02,0.06,0.97
4:11:21:7:60831,3.96,0.93,-159.09,0.02,0.06,0.97
4:11:21:8:60943,3.97,0.93,-159.14,0.02,0.06,0.97
4:11:21:8:61360,3.85,0.99,-158.62,0.01,0.06,0.98
4:11:21:8:61456,3.78,1.02,-158.26,0.02,0.06,0.98
4:11:21:8:61552,3.73,1.04,-157.94,0.02,0.07,0.98
4:11:21:8:61647,3.7,1.04,-157.69,0.02,0.06,0.97
4:11:21:8:61759,3.67,1.06,-157.43,0.02,0.06,0.98
4:11:21:8:61839,3.65,1.06,-157.16,0.02,0.06,0.98
4:11:21:9:61935,3.66,1.07,-156.93,0.02,0.07,0.98
4:11:21:9:62343,3.7,1.05,-156.19,0.02,0.07,0.98
4:11:21:9:62455,3.71,1.05,-156.05,0.02,0.06,0.97
4:11:21:9:62551,3.73,1.05,-155.93,0.02,0.06,0.98
4:11:21:9:62663,3.74,1.03,-155.79,0.01,0.07,0.97
4:11:21:9:62743,3.75,1.03,-155.69,0.02,0.06,0.98
4:11:21:9:62839,3.76,1.03,-155.58,0.02,0.06,0.98
4:11:21:10:62934,3.78,1.02,-155.5,0.02,0.07,0.98
4:11:21:10:63355,3.83,1.0,-155.21,0.02,0.07,0.97
4:11:21:10:63451,3.83,0.99,-155.13,0.02,0.06,0.97
4:11:21:10:63547,3.83,0.99,-155.08,0.02,0.06,0.97
4:11:21:10:63675,3.84,0.99,-155.03,0.02,0.06,0.98
4:11:21:10:63740,3.99,0.94,-155.33,0.02,0.05,0.98
4:11:21:10:63851,4.05,0.91,-155.58,0.02,0.06,0.97
4:11:21:11:63947,4.09,0.89,-155.79,0.02,0.07,0.98
4:11:21:11:64362,4.22,0.83,-156.85,0.02,0.07,0.98
4:11:21:11:64443,4.18,0.84,-156.87,0.02,0.05,0.97
4:11:21:11:64555,4.17,0.84,-156.98,0.02,0.07,0.98
4:11:21:11:64634,4.14,0.85,-157.03,0.02,0.06,0.98
4:11:21:11:64746,4.12,0.86,-157.07,0.02,0.07,0.98
4:11:21:11:64843,4.1,0.86,-157.11,0.02,0.06,0.97
4:11:21:12:64939,4.1,0.87,-157.17,0.02,0.06,0.98
4:11:21:12:65352,4.06,0.88,-157.34,0.01,0.07,0.98
4:11:21:12:65448,4.04,0.88,-157.37,0.03,0.06,0.98
4:11:21:12:65544,4.03,0.89,-157.37,0.01,0.08,0.97
4:11:21:12:65656,4.03,0.89,-157.39,0.03,0.07,0.96
4:11:21:12:65752,4.03,0.89,-157.43,0.01,0.09,0.97
4:11:21:12:65848,4.03,0.89,-157.46,-0.01,0.09,0.98
4:11:21:13:65944,4.03,0.89,-157.47,-0.0,0.07,0.98
4:11:21:13:66351,4.04,0.81,-157.54,-0.03,0.05,1.0
4:11:21:13:66448,4.05,0.72,-157.56,0.07,0.0,0.99
4:11:21:13:66544,4.03,0.69,-157.56,-0.01,0.08,0.97
4:11:21:13:66639,4.09,0.65,-157.57,0.04,0.12,0.98
4:11:21:13:66735,4.09,0.65,-157.59,0.07,-0.0,0.96
4:11:21:13:66848,4.1,0.62,-157.61,0.07,0.07,0.98
4:11:21:14:66943,4.23,0.52,-157.62,-0.0,0.07,0.98
4:11:21:14:67374,4.23,0.42,-157.56,-0.01,0.06,0.96
4:11:21:14:67438,4.2,0.51,-157.56,-0.03,0.05,0.99
4:11:21:14:67534,4.1,0.52,-157.58,0.03,0.08,0.98
4:11:21:14:67661,4.14,0.6,-157.6,0.05,0.05,0.96
4:11:21:14:67741,4.12,0.68,-157.57,0.0,0.11,0.96
4:11:21:14:67853,3.69,0.45,-157.6,0.04,0.03,0.95
4:11:21:15:67949,3.66,0.37,-157.58,0.05,-0.03,0.96
4:11:21:15:68348,3.09,-0.32,-158.03,-0.01,0.05,1.03
4:11:21:15:68476,2.53,-0.73,-158.15,0.0,-0.03,0.92
4:11:21:15:68556,2.04,-1.0,-158.28,-0.01,0.03,0.95
4:11:21:15:68668,1.74,-1.31,-158.46,0.04,-0.01,0.84
4:11:21:15:68747,1.19,-1.66,-158.82,-0.0,0.02,1.0
4:11:21:15:68844,0.54,-2.05,-159.41,0.07,-0.02,1.07
4:11:21:16:68988,0.09,-2.2,-159.74,-0.06,0.06,0.93
4:11:21:16:69354,-1.29,-1.55,-162.58,0.14,0.05,0.76
4:11:21:16:69450,-1.84,-1.87,-163.0,0.04,0.01,0.98
4:11:21:16:69545,-1.81,-2.2,-163.48,0.11,-0.34,0.97
4:11:21:16:69641,-1.72,-2.15,-164.11,-0.11,-0.16,1.26
4:11:21:16:69737,-1.75,-2.0,-164.7,-0.11,-0.07,0.83
4:11:21:16:69865,-2.39,-1.98,-165.16,-0.14,0.17,1.11
4:11:21:17:69962,-2.87,-2.35,-165.58,0.04,-0.06,1.12
4:11:21:17:70338,-4.98,-2.7,-164.79,0.06,-0.05,0.91
4:11:21:17:70450,-4.82,-3.15,-164.04,-0.33,0.23,1.07
4:11:21:17:70562,-3.83,-3.3,-163.21,-0.14,0.08,1.16
4:11:21:17:70658,-2.39,-2.95,-162.73,-0.45,0.2,1.43
4:11:21:17:70754,-1.39,-1.84,-162.71,-0.15,0.18,1.29
4:11:21:17:70850,-0.66,-0.52,-163.06,-0.26,0.18,1.27
4:11:21:18:70946,0.05,1.13,-163.74,-0.39,0.07,1.23
4:11:21:18:71357,-0.12,1.76,-165.25,0.3,-0.28,0.77
4:11:21:18:71453,-0.45,-0.23,-164.92,-0.05,0.05,1.07
4:11:21:18:71549,-1.34,-1.96,-164.31,-0.38,0.29,1.28
4:11:21:18:71644,-2.19,-3.56,-163.41,-0.27,0.07,1.14
4:11:21:18:71756,-2.93,-4.58,-162.39,-0.48,0.23,1.31
4:11:21:18:71852,-3.21,-4.9,-161.54,0.13,-0.04,1.14
4:11:21:19:71948,-2.88,-4.45,-161.17,0.3,-0.21,0.84
4:11:21:19:72342,-0.7,4.34,-163.37,-0.17,0.12,1.08
4:11:21:19:72454,-0.03,5.96,-164.17,0.02,-0.13,0.85
4:11:21:19:72534,0.09,6.77,-164.97,-0.02,0.02,1.12
4:11:21:19:72630,-0.24,6.63,-165.53,0.03,0.14,1.0
4:11:21:19:72757,-0.59,5.23,-165.78,0.13,-0.21,0.78
4:11:21:19:72854,-0.8,2.76,-165.6,0.22,-0.06,0.82
4:11:21:20:72991,-1.27,0.55,-165.09,-0.12,-0.01,1.05
4:11:21:20:73362,-2.31,-5.18,-161.85,-0.11,-0.04,1.1
4:11:21:20:73442,-1.86,-4.61,-161.35,0.03,-0.1,0.92
4:11:21:20:73538,-1.66,-3.49,-161.0,-0.28,0.25,1.18
4:11:21:20:73634,-1.18,-2.12,-160.82,-0.27,0.16,1.08
4:11:21:20:73746,-0.61,-0.55,-160.92,-0.35,0.12,1.18
4:11:21:20:73842,-0.24,1.13,-161.26,0.14,-0.19,0.83
4:11:21:21:73938,0.1,2.61,-161.72,-0.07,0.03,0.88
4:11:21:21:74343,0.17,3.7,-164.1,-0.01,0.17,0.92
4:11:21:21:74439,-0.23,1.92,-164.44,-0.35,0.4,1.04
4:11:21:21:74550,-0.67,-1.17,-164.43,-0.12,0.23,1.22
4:11:21:21:74663,-1.7,-5.04,-163.76,0.15,0.02,0.98
4:11:21:21:74758,-3.09,-9.37,-162.65,-0.06,-0.23,0.76
4:11:21:21:74854,-4.22,-12.99,-161.22,-0.05,0.24,1.08
4:11:21:22:74950,-4.45,-15.16,-159.58,0.06,-0.02,0.92
4:11:21:22:75355,0.96,-5.63,-157.95,-0.22,0.07,0.97
4:11:21:22:75451,2.12,-1.61,-158.63,-0.23,0.2,0.97
4:11:21:22:75547,2.92,2.03,-159.61,-0.2,-0.11,0.94
4:11:21:22:75658,3.48,4.76,-160.68,-0.59,0.25,1.04
4:11:21:22:75755,3.9,6.85,-161.73,0.04,-0.28,0.75
4:11:21:22:75850,3.53,7.67,-162.45,-0.25,0.0,0.93
4:11:21:23:75947,2.82,6.63,-162.64,-0.18,-0.12,0.53
4:11:21:23:76354,0.82,-3.35,-159.78,-0.31,0.25,0.96
4:11:21:23:76450,1.66,-3.11,-159.27,0.19,-0.38,0.7
4:11:21:23:76546,2.11,-2.42,-158.96,-0.18,0.36,0.86
4:11:21:23:76642,2.4,-1.67,-158.77,-0.1,0.09,1.05
4:11:21:23:76738,2.54,-1.24,-158.67,-0.08,0.29,0.61
4:11:21:23:76850,2.58,-0.87,-158.49,0.11,0.07,1.07
4:11:21:24:76946,2.78,-0.63,-158.3,-0.15,-0.02,0.78
4:11:21:24:77358,3.72,2.45,-158.86,0.1,-0.26,0.6
4:11:21:24:77453,3.43,3.05,-159.26,-0.18,0.01,0.81
4:11:21:24:77550,2.97,3.01,-159.57,0.11,-0.03,1.08
4:11:21:24:77645,2.17,2.11,-159.69,-0.06,-0.12,0.73
4:11:21:24:77741,1.48,0.72,-159.64,-0.42,0.18,0.99
4:11:21:24:77837,0.61,-1.53,-159.29,-0.39,0.08,1.28
4:11:21:25:77949,-0.56,-4.18,-158.62,-0.57,0.39,1.3
4:11:21:25:78349,-1.73,-7.1,-155.91,-0.07,0.23,0.84
4:11:21:25:78445,-0.5,-5.26,-155.76,-0.02,-0.04,0.78
4:11:21:25:78557,0.73,-3.43,-155.82,-0.12,0.32,1.11
4:11:21:25:78653,1.58,-1.88,-155.89,-0.1,-0.0,1.05
4:11:21:25:78749,2.0,-0.62,-156.02,0.03,-0.03,0.89
4:11:21:25:78861,2.04,0.03,-156.2,0.14,-0.24,0.87
4:11:21:26:78972,1.81,0.45,-156.52,0.25,-0.46,0.82
4:11:21:26:79385,0.4,-1.69,-156.18,0.02,0.03,1.11
4:11:21:26:79449,0.68,-2.4,-156.32,-0.42,0.39,1.27
4:11:21:26:79561,0.76,-2.4,-156.14,-0.13,0.15,1.21
4:11:21:26:79657,0.61,-1.76,-156.08,-0.24,0.15,1.17
4:11:21:26:79753,0.62,-1.23,-156.13,-0.05,0.06,0.84
4:11:21:26:79848,1.17,-0.99,-156.25,-0.31,0.29,1.21
4:11:21:27:79945,1.72,-0.75,-156.48,0.05,0.0,0.85
4:11:21:27:80444,1.12,-1.05,-156.92,-0.33,0.03,1.14
4:11:21:27:80525,1.18,-1.22,-156.93,-0.11,0.24,1.26
4:11:21:27:80573,1.1,-1.37,-156.99,-0.12,0.13,1.13
4:11:21:27:80685,1.09,-1.5,-157.22,0.08,0.05,0.86
4:11:21:27:80781,1.27,-1.69,-157.56,0.06,0.11,0.85
4:11:21:27:80877,1.16,-2.13,-157.83,0.09,-0.0,0.88
4:11:21:28:81004,0.87,-2.08,-158.12,0.09,0.03,0.8
4:11:21:28:81350,-0.22,-1.11,-158.66,-0.19,0.04,0.89
4:11:21:28:81446,0.14,-0.87,-158.55,0.17,-0.24,0.84
4:11:21:28:81574,0.6,-1.12,-158.38,-0.55,0.32,1.32
4:11:21:28:81654,0.86,-1.55,-158.3,-0.33,0.33,1.42
4:11:21:28:81734,1.05,-1.64,-158.31,0.07,0.05,0.88
4:11:21:29:81910,1.62,-1.68,-158.11,0.15,-0.04,0.98
4:11:21:29:81958,2.25,-1.83,-157.99,0.08,0.07,0.84
4:11:21:29:82378,-0.09,-1.18,-158.25,-0.08,0.12,1.1
4:11:21:29:82459,-0.19,-1.17,-158.28,-0.18,0.01,1.05
4:11:21:29:82587,0.04,-1.09,-158.32,-0.05,0.02,1.21
4:11:21:29:82651,0.94,-1.29,-158.44,-0.67,0.3,1.27
4:11:21:29:82747,1.48,-1.19,-158.46,-0.32,0.0,0.99
4:11:21:29:82842,1.43,-1.23,-158.42,0.04,-0.19,0.89
4:11:21:30:82954,0.95,-1.05,-158.42,-0.03,0.05,1.0
4:11:21:30:83338,-0.76,-2.04,-159.04,-0.2,-0.09,0.95
4:11:21:30:83434,-1.3,-2.79,-158.98,-0.12,0.01,0.98
4:11:21:30:83562,-1.66,-3.32,-159.09,-0.14,0.14,1.25
4:11:21:30:83658,-2.0,-3.64,-158.9,-0.46,0.19,1.15
4:11:21:30:83754,-1.78,-3.78,-158.88,0.06,-0.06,0.88
4:11:21:30:83850,-1.5,-3.67,-158.92,0.15,-0.1,0.75
4:11:21:31:83946,-1.45,-3.53,-158.91,-0.2,0.17,1.26
4:11:21:31:84438,-2.15,-3.11,-158.66,-0.84,0.43,1.48
4:11:21:31:84567,-1.9,-3.32,-158.64,-0.15,-0.0,1.08
4:11:21:31:84663,-1.61,-3.66,-158.59,0.15,-0.04,0.68
4:11:21:31:84742,-1.63,-4.1,-158.46,0.05,-0.02,0.85
4:11:21:31:84854,-1.6,-4.55,-158.3,-0.17,-0.03,1.08
4:11:21:32:84934,-1.64,-4.61,-158.26,0.18,-0.12,0.93
4:11:21:32:85063,-1.69,-4.15,-158.39,-0.13,-0.14,0.94
4:11:21:32:85354,-1.6,-2.43,-159.01,0.07,-0.05,0.93
4:11:21:32:85464,-1.45,-1.84,-159.32,-0.08,0.05,1.03
4:11:21:32:85560,-1.46,-1.38,-159.31,-0.12,0.21,0.95
4:11:21:32:85656,-1.22,-1.06,-159.38,0.01,-0.05,0.89
4:11:21:32:85753,-0.89,-0.79,-159.6,-0.01,-0.12,0.98
4:11:21:32:85848,-0.73,-0.81,-159.75,-0.2,-0.2,0.8
4:11:21:33:85960,-0.65,-1.39,-159.8,-0.26,0.19,1.09
4:11:21:33:86386,-2.47,-5.99,-158.59,-0.12,0.12,1.08
4:11:21:33:86467,-2.96,-6.73,-158.04,-0.28,0.22,1.27
4:11:21:33:86563,-3.04,-6.92,-157.56,-0.2,0.18,1.2
4:11:21:33:86658,-2.91,-6.71,-157.28,-0.41,0.21,1.13
4:11:21:33:86754,-2.83,-5.9,-157.19,-0.2,0.08,1.08
4:11:21:33:86882,-2.58,-4.8,-157.29,-0.25,0.22,0.99
4:11:21:34:86962,-2.36,-3.46,-157.56,-0.11,0.01,0.89
4:11:21:34:87359,-1.54,0.81,-159.4,-0.62,0.34,1.31
4:11:21:34:87456,-1.1,0.4,-159.74,-0.14,-0.09,1.01
4:11:21:34:87551,-1.0,-0.81,-159.9,-0.34,0.12,1.16
4:11:21:34:87664,-1.27,-2.39,-159.77,0.15,0.05,1.04
4:11:21:34:87760,-1.68,-4.03,-159.41,-0.15,0.19,1.2
4:11:21:34:87855,-2.57,-5.06,-158.91,0.09,-0.03,0.87
4:11:21:35:87968,-2.98,-5.48,-158.4,0.15,-0.04,0.81
4:11:21:35:88346,-1.83,-4.03,-157.49,-0.14,-0.11,1.01
4:11:21:35:88458,-1.52,-3.33,-157.08,0.09,-0.02,1.05
4:11:21:35:88553,-1.14,-2.72,-156.65,-0.18,0.06,1.15
4:11:21:35:88665,-0.83,-2.45,-156.23,0.18,-0.13,0.84
4:11:21:35:88761,-0.72,-2.39,-155.78,0.18,-0.28,0.75
4:11:21:35:88857,-0.91,-2.67,-155.52,-0.12,0.24,1.03
4:11:21:36:88953,-1.33,-2.72,-155.43,-0.36,0.12,1.17
4:11:21:36:89352,-2.47,-1.27,-155.51,-0.21,0.14,1.1
4:11:21:36:89478,-1.93,-1.5,-155.39,-0.21,-0.12,0.93
4:11:21:36:89559,-1.68,-1.92,-155.34,-0.06,-0.15,0.84
4:11:21:36:89654,-1.24,-1.95,-155.8,0.07,-0.19,0.99
4:11:21:36:89767,-0.92,-2.03,-155.69,-0.11,0.04,1.07
4:11:21:36:89862,-0.65,-2.48,-155.11,-0.25,-0.16,1.08
4:11:21:37:89958,-0.37,-3.07,-154.86,0.26,-0.32,0.75
4:11:21:37:90349,-2.08,-2.1,-156.22,0.03,-0.23,0.91
4:11:21:37:90477,-2.23,-1.14,-156.8,-0.14,0.04,1.18
4:11:21:37:90557,-2.14,-0.3,-157.42,-0.06,-0.05,1.09
4:11:21:37:90653,-1.89,-0.22,-158.04,-0.13,0.15,1.08
4:11:21:37:90749,-1.93,-0.52,-158.43,-0.04,-0.05,0.99
4:11:21:37:90860,-1.93,-1.18,-158.6,0.2,-0.29,0.72
4:11:21:38:90956,-1.89,-2.57,-158.26,-0.4,0.09,1.03
4:11:21:38:91367,-4.32,-7.96,-155.25,0.13,-0.15,0.86
4:11:21:38:91463,-3.97,-7.49,-154.94,-0.09,-0.14,0.98
4:11:21:38:91559,-3.5,-6.49,-154.9,-0.19,0.06,1.2
4:11:21:38:91656,-3.17,-5.16,-155.08,-0.02,-0.08,0.74
4:11:21:38:91751,-2.97,-4.0,-155.42,-0.35,0.25,1.2
4:11:21:38:91863,-2.96,-3.34,-155.76,-0.06,-0.05,0.94
4:11:21:39:91960,-2.96,-3.17,-156.03,-0.04,-0.32,0.92
4:11:21:39:92357,-3.21,-4.46,-156.29,-0.19,-0.02,0.95
4:11:21:39:92454,-3.29,-4.19,-156.43,-0.01,-0.22,0.96
4:11:21:39:92550,-3.25,-4.11,-156.5,-0.08,-0.17,0.89
4:11:21:39:92662,-3.24,-3.93,-156.57,-0.05,-0.04,0.92
4:11:21:39:92757,-3.48,-3.86,-156.58,-0.04,-0.12,0.92
4:11:21:39:92854,-3.69,-3.6,-156.55,-0.17,0.06,1.22
4:11:21:40:92965,-3.79,-3.47,-156.48,0.08,-0.11,0.85
4:11:21:40:93366,-1.92,-4.46,-156.43,-0.2,-0.04,0.91
4:11:21:40:93461,-1.5,-4.7,-156.41,-0.35,0.19,1.25
4:11:21:40:93557,-1.1,-4.69,-156.41,-0.17,0.14,1.06
4:11:21:40:93653,-1.03,-4.33,-156.4,-0.14,0.12,0.99
4:11:21:40:93765,-1.28,-3.88,-156.3,-0.17,-0.07,1.19
4:11:21:40:93861,-1.75,-3.35,-156.24,0.17,-0.16,0.75
4:11:21:41:93957,-2.01,-2.72,-156.43,-0.4,0.03,1.01
4:11:21:41:94350,-3.53,-2.09,-157.35,-0.06,0.16,1.06
4:11:21:41:94477,-3.65,-2.5,-157.47,-0.07,-0.14,0.87
4:11:21:41:94557,-3.62,-2.98,-157.48,0.21,-0.21,0.82
4:11:21:41:94669,-3.55,-3.7,-157.09,-0.4,0.1,1.08
4:11:21:41:94766,-3.63,-4.25,-156.54,-0.01,-0.12,0.98
4:11:21:41:94861,-3.88,-4.73,-155.82,0.06,-0.01,1.0
4:11:21:42:94958,-4.2,-4.82,-155.13,-0.03,-0.09,1.03
4:11:21:42:95362,-3.93,-2.57,-154.61,-0.09,-0.05,0.88
4:11:21:42:95458,-3.46,-1.6,-154.85,0.01,-0.23,0.91
4:11:21:42:95553,-2.87,-0.95,-155.05,0.23,-0.21,0.98
4:11:21:42:95634,-2.57,-0.42,-155.23,-0.13,0.04,0.99
4:11:21:42:95762,-2.13,0.0,-155.48,-0.29,0.25,1.26
4:11:21:42:95858,-1.25,0.18,-155.58,0.06,-0.17,0.79
4:11:21:43:95954,-0.69,0.46,-155.84,0.12,-0.28,0.8
4:11:21:43:96361,-1.57,1.02,-156.65,0.14,-0.09,0.93
4:11:21:43:96458,-1.94,1.02,-156.98,-0.05,-0.14,0.94
4:11:21:43:96554,-2.3,0.82,-157.28,-0.36,0.13,1.29
4:11:21:43:96650,-2.59,0.35,-157.48,0.17,-0.23,0.74
4:11:21:43:96745,-3.07,-0.26,-157.49,-0.26,-0.01,1.1
4:11:21:43:96858,-3.49,-0.79,-157.53,-0.24,0.1,1.13
4:11:21:44:96953,-4.08,-1.0,-157.57,0.31,-0.3,0.9
4:11:21:44:97358,-4.75,-1.2,-157.46,-0.22,0.13,1.0
4:11:21:44:97454,-4.53,-1.34,-157.32,-0.02,-0.0,1.11
4:11:21:44:97549,-4.57,-1.16,-157.28,-0.0,-0.17,0.98
4:11:21:44:97662,-4.77,-0.73,-157.27,-0.14,0.07,1.07
4:11:21:44:97758,-4.64,-0.19,-157.41,0.0,0.04,1.01
4:11:21:44:97854,-4.45,0.2,-157.63,-0.32,0.0,1.02
4:11:21:45:97965,-4.27,0.67,-157.9,0.11,-0.05,0.98
4:11:21:45:98359,-2.85,-0.86,-157.63,-0.12,0.21,1.04
4:11:21:45:98440,-2.62,-0.86,-157.45,0.11,-0.24,0.86
4:11:21:45:98551,-2.23,-0.74,-157.45,0.08,-0.17,0.83
4:11:21:45:98631,-2.01,-0.84,-157.42,-0.19,-0.03,0.86
4:11:21:45:98759,-2.22,-0.56,-157.37,-0.03,-0.13,0.96
4:11:21:45:98855,-2.27,-0.16,-157.31,-0.07,-0.0,0.81
4:11:21:46:98951,-1.68,-0.2,-157.22,0.09,-0.25,0.74
4:11:21:46:99361,-1.46,-0.48,-157.43,0.22,-0.26,0.83
4:11:21:46:99457,-1.53,-0.43,-157.46,-0.1,0.16,0.94
4:11:21:46:99553,-1.55,-0.5,-157.47,-0.39,0.15,1.02
4:11:21:46:99633,-1.36,-0.72,-157.46,0.09,-0.02,0.97
4:11:21:46:99777,-1.07,-0.88,-157.43,0.07,-0.16,0.92
4:11:21:46:99856,-0.93,-0.77,-157.26,0.03,0.1,0.87
4:11:21:47:99997,-0.69,-0.96,-156.95,0.11,-0.15,0.78
4:11:21:47:100357,-0.71,-1.68,-155.92,0.15,-0.2,0.8
4:11:21:47:100468,-0.62,-1.79,-155.65,-0.22,0.07,1.01
4:11:21:47:100531,-0.64,-1.86,-155.43,0.02,-0.08,0.86
4:11:21:47:100660,-0.54,-2.06,-155.31,-0.03,0.06,1.04
4:11:21:47:100772,-0.43,-2.07,-155.16,0.07,-0.16,0.8
4:11:21:47:100852,-0.45,-2.08,-155.07,0.07,-0.07,1.0
4:11:21:48:100963,-0.61,-2.11,-154.96,0.17,-0.21,0.93
4:11:21:48:101390,0.11,-2.15,-154.83,0.03,-0.04,0.88
4:11:21:48:101454,0.22,-2.39,-155.04,0.17,-0.1,0.75
4:11:21:48:101549,0.3,-2.62,-155.3,0.0,-0.1,0.78
4:11:21:48:101645,0.36,-2.62,-155.46,-0.08,-0.02,0.73
4:11:21:48:101773,0.53,-2.64,-155.56,-0.1,-0.11,1.0
4:11:21:48:101853,0.64,-2.35,-155.53,-0.1,0.09,0.96
4:11:21:49:101949,0.78,-2.16,-155.43,-0.01,-0.05,0.98
4:11:21:49:102354,1.97,-2.85,-155.16,-0.22,0.08,1.08
4:11:21:49:102450,2.01,-2.96,-155.26,-0.09,-0.1,0.77
4:11:21:49:102546,1.9,-2.95,-155.41,0.05,-0.01,0.97
4:11:21:49:102657,1.89,-3.03,-155.6,0.09,0.04,0.82
4:11:21:49:102753,2.02,-3.11,-155.74,-0.13,-0.05,0.96
4:11:21:49:102866,2.13,-3.12,-155.85,-0.26,0.11,0.98
4:11:21:50:102978,2.14,-3.15,-155.91,0.03,-0.17,0.76
4:11:21:50:103435,1.56,-3.16,-155.24,-0.1,0.25,0.99
4:11:21:50:103563,1.82,-3.3,-155.21,0.02,-0.19,0.74
4:11:21:50:103643,2.07,-3.38,-155.38,-0.07,-0.02,0.92
4:11:21:50:103754,2.14,-3.19,-155.58,0.19,-0.02,0.93
4:11:21:50:103898,1.94,-2.97,-155.78,-0.27,0.06,1.2
4:11:21:51:103963,1.64,-2.7,-155.99,-0.2,0.12,0.92
4:11:21:51:104075,1.34,-2.97,-156.04,0.01,0.03,0.97
4:11:21:51:104442,-3.71,2.65,-153.29,0.25,-0.66,0.02
4:11:21:51:104570,-3.07,4.41,-152.67,0.22,0.03,-0.04
4:11:21:51:104666,-28.16,-3.88,-150.85,0.08,-0.74,0.96
4:11:21:51:104763,-31.22,-5.96,-161.0,-0.01,0.01,-0.01
4:11:21:51:104842,-23.07,-13.12,-167.64,0.01,0.05,-0.06
4:11:21:52:104938,-25.09,-23.4,-165.11,-0.03,0.03,-0.02
4:11:21:52:105050,-30.73,-33.77,-159.45,-0.04,0.0,-0.0
4:11:21:52:105351,-55.92,-6.17,-154.42,-0.01,-0.3,0.1
4:11:21:52:105462,-36.86,24.02,-141.61,-0.0,-0.2,0.0
4:11:21:52:105559,8.87,22.04,-109.79,0.32,0.23,-0.07
4:11:21:52:105638,1.24,-12.66,-94.14,-0.21,0.18,0.79
4:11:21:52:105751,-2.33,-7.96,-92.61,0.06,-0.1,0.36
4:11:21:52:105847,15.57,-16.93,-95.49,-0.1,0.23,0.57
4:11:21:53:105942,9.01,-24.52,-97.7,-0.01,0.1,0.61
4:11:21:53:106332,-9.5,26.63,-15.14,0.23,0.22,1.25
4:11:21:53:106460,-10.36,40.06,-0.97,0.1,0.1,0.87
4:11:21:53:106541,-0.1,44.23,0.85,0.21,0.12,0.52
4:11:21:53:106636,11.04,39.63,0.65,0.08,0.23,0.37
4:11:21:53:106748,2.59,35.01,-12.92,0.08,0.17,0.47
4:11:21:53:106860,-9.82,24.64,-33.77,0.16,0.13,0.8
4:11:21:54:106956,-7.01,-4.57,-67.23,-0.36,0.17,1.45
4:11:21:54:107372,-17.25,12.39,138.66,-0.11,-0.15,0.74
4:11:21:54:107436,-16.53,9.7,135.13,-0.13,-0.01,0.81
4:11:21:54:107548,-17.46,18.78,143.84,-0.09,-0.04,0.81
4:11:21:54:107645,-9.44,25.07,166.51,-0.2,-0.1,0.92
4:11:21:54:107741,5.07,13.23,-166.95,-0.24,-0.0,0.94
4:11:21:54:107868,16.61,6.48,-155.43,-0.2,0.11,0.86
4:11:21:55:107964,16.63,8.51,-157.21,-0.17,0.05,1.29
4:11:21:55:108356,-17.61,-7.59,67.07,-0.58,-0.2,1.3
4:11:21:55:108437,-29.91,-8.02,35.73,-0.17,-0.23,0.8
4:11:21:55:108565,-26.33,-5.36,13.32,0.04,-0.08,0.5
4:11:21:55:108645,-19.44,-15.58,4.67,-0.24,0.01,1.04
4:11:21:55:108757,-22.13,-8.17,2.52,-0.13,-0.03,0.99
4:11:21:55:108853,-15.86,-5.01,-2.32,-0.16,0.05,1.49
4:11:21:56:108964,-2.41,-34.11,-21.05,-0.56,0.12,1.09
4:11:21:56:109359,14.65,2.14,-155.81,-0.51,0.05,1.32
4:11:21:56:109439,0.77,24.01,-169.06,-0.08,-0.11,0.83
4:11:21:56:109551,-4.87,34.12,-177.18,0.0,-0.16,0.87
4:11:21:56:109646,12.97,29.48,-176.85,-0.15,0.08,1.05
4:11:21:56:109743,21.39,26.6,-168.33,-0.14,0.03,1.06
4:11:21:56:109838,25.7,27.4,-163.02,-0.0,0.03,1.05
4:11:21:57:109934,31.35,26.58,-177.36,-0.16,0.12,1.18
4:11:21:57:110350,-21.95,-8.84,-0.12,-0.33,-0.03,1.11
4:11:21:57:110446,-10.78,-23.15,-57.83,-0.33,-0.13,1.11
4:11:21:57:110542,4.52,-19.56,-107.3,-0.26,-0.07,1.09
4:11:21:57:110669,4.08,-4.71,-135.88,-0.1,-0.08,1.03
4:11:21:57:110750,-1.01,6.76,-151.15,-0.14,-0.16,0.96
4:11:21:57:110845,3.64,13.53,-155.66,-0.18,-0.07,1.04
4:11:21:58:110974,12.81,19.23,-154.97,-0.1,0.09,1.21
4:11:21:58:111357,-13.37,12.61,105.98,-0.4,0.05,0.95
4:11:21:58:111435,-23.41,-2.0,60.29,-0.16,-0.02,1.06
4:11:21:58:111547,-19.2,-21.88,13.16,-0.41,-0.11,1.0
4:11:21:58:111644,-9.19,-22.82,-32.9,-0.23,-0.07,0.98
4:11:21:58:111739,-4.57,-19.6,-64.46,-0.16,-0.1,1.0
4:11:21:58:111851,1.51,-12.97,-85.83,-0.16,-0.11,0.99
4:11:21:59:111995,7.0,-9.52,-96.05,-0.22,0.03,1.0
4:11:21:59:112361,13.48,8.63,-167.24,-0.3,0.01,0.97
4:11:21:59:112455,3.82,16.05,152.87,-0.3,-0.01,1.0
4:11:21:59:112567,-10.68,12.43,110.91,-0.23,-0.08,1.13
4:11:21:59:112648,-17.08,-0.72,73.44,-0.35,-0.04,1.05
4:11:21:59:112743,-24.68,-3.71,41.17,-0.12,-0.11,1.06
4:11:21:59:112840,-24.22,-10.82,16.87,-0.24,-0.08,1.26
4:11:22:0:112935,-18.18,-12.3,-5.06,-0.11,-0.04,1.11
4:11:22:0:113358,126.7,5.89,-18.24,-0.34,-0.28,0.0
4:11:22:0:113437,149.78,-33.35,38.55,-0.79,0.8,-0.52
4:11:22:0:113549,23.63,-19.98,134.11,0.25,-0.0,0.02
4:11:22:0:113661,-20.19,-22.64,114.89,-0.41,-0.55,0.39
4:11:22:0:113757,-53.51,-55.34,146.69,-1.25,-0.12,-0.1
4:11:22:0:113853,-77.58,-57.64,175.07,-0.91,-0.12,-0.08
4:11:22:1:113949,-73.26,-58.64,170.37,-1.05,-0.11,-0.03
4:11:22:1:114447,-89.3,-73.05,-173.71,-1.0,-0.12,-0.02
4:11:22:1:114559,-92.23,-74.39,-170.76,-1.01,-0.12,-0.02
4:11:22:1:114655,-94.7,-75.44,-168.28,-1.01,-0.12,-0.02
4:11:22:1:114751,-96.83,-76.24,-166.12,-1.01,-0.11,-0.02
4:11:22:1:114847,-98.5,-76.84,-164.41,-1.01,-0.11,-0.02
4:11:22:2:114959,-99.63,-77.35,-163.23,-1.01,-0.12,-0.02
4:11:22:2:115357,-100.92,-77.43,-161.62,-1.01,-0.12,-0.02
4:11:22:2:115454,-101.03,-77.41,-161.42,-1.01,-0.11,-0.02
4:11:22:2:115549,-101.03,-77.63,-161.34,-1.01,-0.13,-0.02
4:11:22:2:115645,-101.19,-77.53,-161.1,-1.0,-0.1,-0.02
4:11:22:2:115772,-101.6,-77.73,-160.62,-1.02,-0.12,-0.02
4:11:22:3:115933,-101.55,-77.89,-160.53,-1.07,-0.1,-0.11
4:11:22:3:115949,-92.98,-75.82,-168.69,-1.11,-0.15,0.03
4:11:22:3:116361,-46.6,-53.79,154.77,-0.87,-0.42,0.76
4:11:22:3:116441,-40.49,-43.19,163.13,-0.76,-0.28,0.89
4:11:22:3:116554,-34.47,-34.61,171.24,-0.68,-0.4,0.93
4:11:22:3:116650,-33.42,-28.48,-174.43,-0.68,-0.38,0.88
4:11:22:3:116745,-33.91,-24.79,-157.05,-0.75,-0.36,0.9
4:11:22:4:116904,-33.01,-24.21,-143.0,-0.59,-0.31,0.71
4:11:22:4:116952,-34.17,-24.13,-136.73,-0.58,-0.23,0.6
4:11:22:4:117354,-30.99,-28.39,-125.38,-0.79,-0.51,0.54
4:11:22:4:117449,-31.55,-32.94,-126.84,-0.66,-0.53,0.4
4:11:22:4:117561,-35.46,-38.77,-118.27,-0.67,-0.37,0.46
4:11:22:4:117674,-35.33,-42.32,-120.34,-0.7,-0.41,0.48
4:11:22:4:117753,-32.34,-45.15,-123.94,-0.71,-0.39,0.52
4:11:22:4:117850,-34.95,-50.64,-120.61,-0.63,-0.46,0.36
4:11:22:5:117945,-47.2,-52.76,-108.48,-0.53,-0.34,0.36
4:11:22:5:118376,-61.59,-48.72,-120.95,-0.74,-0.49,0.33
4:11:22:5:118455,-61.97,-55.18,-129.07,-0.66,-0.68,0.22
4:11:22:5:118551,-72.38,-68.41,-137.18,-1.05,-0.4,-0.07
4:11:22:5:118648,-117.07,-73.61,-103.1,-1.16,-0.23,-0.26
4:11:22:5:118744,-146.97,-62.67,-82.27,-1.04,-0.14,-0.4
4:11:22:5:118840,-155.23,-53.01,-85.09,-1.0,-0.15,-0.48
4:11:22:6:118952,-160.71,-48.17,-90.46,-0.88,-0.19,-0.61
4:11:22:6:119359,-170.38,-38.29,-109.49,-0.8,-0.05,-0.69
4:11:22:6:119454,-170.2,-36.81,-113.1,-0.76,-0.06,-0.76
4:11:22:6:119550,-172.31,-36.12,-115.23,-0.69,0.03,-0.78
4:11:22:6:119647,-172.51,-37.7,-117.79,-0.64,0.05,-0.97
4:11:22:6:119742,-166.91,-43.25,-123.07,-0.79,0.07,-0.87
4:11:22:6:119854,-160.26,-49.18,-129.35,-0.69,-0.04,-0.79
4:11:22:7:119950,-150.28,-60.33,-135.1,-0.81,-0.05,-0.6
4:11:22:7:120359,-122.73,-81.64,-147.24,-1.04,0.07,-0.21
4:11:22:7:120456,-67.28,-84.18,165.66,-1.03,0.06,-0.06
4:11:22:7:120567,-46.74,-83.77,147.98,-1.02,0.08,0.0
4:11:22:7:120663,-69.2,-86.11,169.24,-1.0,0.12,-0.04
4:11:22:7:120744,-142.55,-84.61,-121.8,-0.99,0.15,-0.12
4:11:22:7:120855,-164.97,-78.29,-106.28,-0.98,0.11,-0.18
4:11:22:8:120952,-169.52,-72.5,-108.31,-0.98,0.11,-0.23
4:11:22:8:121355,-126.77,-71.7,-149.15,-1.01,-0.01,-0.19
4:11:22:8:121451,-118.47,-67.07,-156.31,-0.97,-0.13,-0.18
4:11:22:8:121547,-113.01,-62.68,-160.71,-0.93,-0.29,-0.24
4:11:22:8:121643,-109.32,-60.3,-165.1,-0.95,-0.4,-0.17
4:11:22:8:121770,-103.55,-58.24,-171.19,-0.86,-0.45,-0.11
4:11:22:8:121850,-96.61,-53.87,-178.16,-0.85,-0.52,-0.14
4:11:22:9:121947,-90.37,-48.92,177.84,-0.79,-0.59,-0.01
4:11:22:9:122351,-89.86,-35.01,172.25,-0.59,-0.83,0.06
4:11:22:9:122463,-92.55,-34.87,171.06,-0.61,-0.83,-0.04
4:11:22:9:122543,-94.83,-34.1,170.71,-0.57,-0.8,-0.09
4:11:22:9:122655,-96.86,-32.78,171.92,-0.53,-0.79,-0.04
4:11:22:9:122752,-97.56,-33.72,171.41,-0.57,-0.79,-0.14
4:11:22:9:122863,-100.55,-39.25,173.07,-0.61,-0.79,-0.1
4:11:22:10:122943,-100.04,-44.41,172.85,-0.75,-0.73,-0.17
4:11:22:10:123355,131.05,-83.73,-62.92,-0.96,0.14,-0.01
4:11:22:10:123451,92.62,-73.2,-25.78,-0.92,0.38,-0.05
4:11:22:10:123563,89.36,-66.08,-23.26,-0.79,0.64,-0.02
4:11:22:10:123643,89.53,-58.52,-24.34,-0.69,0.76,0.04
4:11:22:10:123738,92.0,-53.24,-27.79,-0.64,0.85,-0.01
4:11:22:10:123835,95.52,-49.04,-33.8,-0.56,0.87,-0.0
4:11:22:11:123930,96.28,-45.46,-36.24,-0.44,0.91,-0.07
4:11:22:11:124341,104.56,-46.48,-53.84,-0.39,0.94,-0.07
4:11:22:11:124437,108.9,-51.79,-60.63,-0.45,0.8,-0.07
4:11:22:11:124533,137.52,-70.06,-88.82,-0.81,0.52,-0.21
4:11:22:11:124660,-151.31,-77.63,-157.43,-0.95,0.3,-0.02
4:11:22:11:124740,-94.56,-69.16,146.77,-0.96,-0.09,0.06
4:11:22:11:124852,-70.67,-53.78,118.05,-1.1,-0.21,0.2
4:11:22:12:124948,-65.41,-44.11,103.44,-1.02,-0.32,0.56
4:11:22:12:125360,-53.33,-38.86,74.93,-0.65,-0.45,0.67
4:11:22:12:125472,-51.33,-40.37,72.1,-0.64,-0.43,0.64
4:11:22:12:125569,-49.73,-42.36,70.04,-0.66,-0.36,0.65
4:11:22:12:125649,-47.23,-43.65,67.61,-0.7,-0.39,0.66
4:11:22:12:125760,-45.02,-44.36,65.41,-0.68,-0.36,0.68
4:11:22:12:125856,-43.09,-44.76,63.46,-0.7,-0.34,0.65
4:11:22:13:125952,-41.13,-45.1,61.23,-0.7,-0.32,0.64
4:11:22:13:126349,-39.09,-46.17,60.49,-0.69,-0.3,0.67
4:11:22:13:126445,-39.11,-46.2,60.19,-0.68,-0.31,0.66
4:11:22:13:126541,-39.17,-46.25,60.87,-0.67,-0.3,0.66
4:11:22:13:126653,-39.52,-46.32,61.42,-0.69,-0.31,0.68
4:11:22:13:126748,-39.93,-46.4,61.46,-0.6,-0.33,0.56
4:11:22:13:126844,-45.24,-46.0,68.25,-0.75,-0.25,0.74
4:11:22:14:126971,-43.77,-45.67,62.71,-0.61,-0.41,0.6
4:11:22:14:127344,-43.49,-45.27,63.55,-0.65,-0.35,0.66
4:11:22:14:127441,-42.5,-45.28,64.02,-0.66,-0.32,0.65
4:11:22:14:127536,-41.37,-45.6,64.0,-0.69,-0.32,0.65
4:11:22:14:127648,-40.84,-45.72,63.7,-0.66,-0.32,0.64
4:11:22:14:127744,-40.57,-45.62,63.78,-0.68,-0.3,0.65
4:11:22:14:127856,-41.88,-46.68,64.31,-0.7,-0.31,0.61
4:11:22:15:127952,-42.5,-47.54,63.32,-0.68,-0.35,0.6
