sysTime,roll,pitch,yaw,ax,ay,az
4:8:56:10:13355,69.78,-43.53,163.16,-0.69,0.67,0.24
4:8:56:10:13356,69.84,-43.48,162.95,-0.7,0.68,0.24
4:8:56:10:13674,64.71,-42.49,163.95,-0.68,0.66,0.29
4:8:56:10:13770,63.65,-42.18,164.99,-0.68,0.68,0.34
4:8:56:10:13867,64.64,-42.96,164.16,-0.7,0.67,0.32
4:8:56:10:13978,68.92,-44.96,160.64,-0.74,0.68,0.28
4:8:56:10:14089,71.81,-45.8,158.09,-0.71,0.67,0.22
4:8:56:11:14187,73.19,-46.09,157.08,-0.72,0.69,0.21
4:8:56:11:14599,82.76,-46.21,150.33,-0.71,0.69,0.09
4:8:56:11:14663,83.61,-46.02,149.87,-0.71,0.7,0.07
4:8:56:11:14791,83.7,-45.97,150.13,-0.72,0.7,0.09
4:8:56:11:14871,83.21,-46.14,150.8,-0.73,0.7,0.07
4:8:56:11:14966,82.5,-46.28,151.62,-0.74,0.7,0.08
4:8:56:11:15078,81.34,-46.3,152.77,-0.73,0.69,0.11
4:8:56:12:15190,80.69,-46.31,153.38,-0.73,0.71,0.11
4:8:56:12:15683,81.06,-46.68,153.85,-0.75,0.7,0.09
4:8:56:12:15779,81.51,-46.63,153.69,-0.73,0.68,0.1
4:8:56:12:15876,82.07,-46.67,153.42,-0.74,0.7,0.09
4:8:56:12:15987,82.82,-46.73,152.78,-0.73,0.7,0.08
4:8:56:12:16083,82.49,-46.71,152.91,-0.74,0.69,0.09
4:8:56:12:16179,82.02,-46.66,153.32,-0.74,0.7,0.1
4:8:56:13:16585,81.5,-46.82,153.38,-0.74,0.69,0.11
4:8:56:13:16662,81.67,-46.86,153.23,-0.73,0.69,0.1
4:8:56:13:16774,81.61,-46.82,153.35,-0.74,0.7,0.11
4:8:56:13:16870,82.26,-46.86,152.82,-0.75,0.7,0.07
4:8:56:13:16981,82.09,-46.71,152.94,-0.75,0.71,0.12
4:8:56:13:17078,82.45,-46.47,152.94,-0.71,0.68,0.09
4:8:56:13:17174,82.3,-46.62,153.11,-0.71,0.69,0.1
4:8:56:14:17679,82.88,-46.37,152.6,-0.71,0.69,0.11
4:8:56:14:17760,82.61,-46.37,152.66,-0.72,0.69,0.1
4:8:56:14:17887,82.06,-46.47,153.06,-0.74,0.7,0.1
4:8:56:14:17983,81.67,-46.55,153.64,-0.73,0.69,0.11
4:8:56:14:18079,81.73,-46.53,153.98,-0.74,0.7,0.09
4:8:56:15:18191,82.45,-46.47,153.59,-0.72,0.7,0.08
4:8:56:15:18586,80.31,-46.81,155.26,-0.73,0.67,0.13
4:8:56:15:18682,80.67,-46.96,154.81,-0.74,0.69,0.11
4:8:56:15:18778,81.44,-46.96,153.83,-0.74,0.67,0.08
4:8:56:15:18889,80.61,-46.89,153.97,-0.76,0.69,0.15
4:8:56:15:18986,80.32,-46.67,154,-0.72,0.7,0.14
4:8:56:15:19082,80.69,-46.71,153.86,-0.73,0.68,0.1
4:8:56:15:19178,80.69,-46.75,153.77,-0.74,0.69,0.11
4:8:56:16:19668,80.27,-47.37,152.62,-0.73,0.67,0.12
4:8:56:16:19777,79.93,-47.82,152.55,-0.76,0.68,0.13
4:8:56:16:19889,79.15,-47.87,152.99,-0.76,0.67,0.13
4:8:56:16:19984,79.48,-47.96,152.34,-0.76,0.68,0.13
4:8:56:16:20080,78.87,-47.96,152.63,-0.75,0.68,0.14
4:8:56:16:20176,78.5,-47.97,152.82,-0.76,0.66,0.14
4:8:56:17:20597,77.57,-47.42,153.6,-0.74,0.68,0.16
4:8:56:17:20677,77.51,-47.37,153.87,-0.74,0.65,0.12
4:8:56:17:20789,76.76,-47.21,154.55,-0.73,0.69,0.19
4:8:56:17:20885,77.25,-47.88,154.52,-0.76,0.66,0.14
4:8:56:17:20981,77.82,-48.57,153.7,-0.75,0.64,0.15
4:8:56:17:21077,77.75,-48.74,153.37,-0.75,0.64,0.14
4:8:56:17:21173,77.37,-48.56,153.34,-0.77,0.66,0.14
4:8:56:18:21687,77.18,-48.34,153.89,-0.74,0.66,0.16
4:8:56:18:21783,76.85,-48,154.77,-0.76,0.67,0.17
4:8:56:18:21879,76.66,-47.7,155.6,-0.75,0.69,0.15
4:8:56:18:21974,75.95,-46.85,157.15,-0.72,0.68,0.19
4:8:56:18:22071,76.33,-46.73,158.18,-0.73,0.66,0.14
4:8:56:18:22167,76.77,-47.16,158.81,-0.73,0.66,0.15
4:8:56:19:22580,75.23,-48.68,162.14,-0.75,0.64,0.18
4:8:56:19:22674,75.06,-48.95,162.6,-0.76,0.64,0.19
4:8:56:19:22786,75.02,-48.95,162.95,-0.77,0.65,0.17
4:8:56:19:22899,75.25,-48.92,163.12,-0.78,0.64,0.17
4:8:56:19:22979,75.9,-48.9,162.7,-0.76,0.64,0.17
4:8:56:19:23074,76.39,-48.86,162.05,-0.76,0.63,0.15
4:8:56:20:23187,76.21,-48.97,161.92,-0.75,0.64,0.17
4:8:56:20:23674,75.74,-48.71,161.3,-0.77,0.65,0.17
4:8:56:20:23786,76.31,-48.73,160.64,-0.76,0.66,0.16
4:8:56:20:23882,76.56,-48.48,160.2,-0.76,0.65,0.17
4:8:56:20:23978,76.52,-48.15,160.05,-0.74,0.66,0.18
4:8:56:20:24074,76.26,-47.63,160.38,-0.76,0.68,0.18
4:8:56:20:24170,76.5,-47.19,160.46,-0.73,0.66,0.17
4:8:56:22:25665,39.04,-27.35,-170.45,-0.5,0.6,0.68
4:8:56:22:25777,38.15,-27.64,-170.75,-0.46,0.59,0.73
4:8:56:22:25905,38.43,-28.2,-171.1,-0.46,0.53,0.67
4:8:56:22:25985,39.11,-29,-171.46,-0.5,0.57,0.71
4:8:56:22:26065,39.6,-29.63,-171.46,-0.5,0.55,0.65
4:8:56:22:26177,40.06,-30.39,-171.4,-0.51,0.58,0.67
4:8:56:23:26598,38.08,-28.13,-169.95,-0.46,0.6,0.7
4:8:56:23:26709,37.18,-27.06,-169.11,-0.43,0.6,0.69
4:8:56:23:26774,36.75,-26.38,-168.28,-0.44,0.56,0.77
4:8:56:23:26869,37.47,-25.94,-168.06,-0.41,0.53,0.72
4:8:56:23:26982,37.99,-26,-168.05,-0.44,0.59,0.74
4:8:56:23:27078,39.08,-26.07,-168.16,-0.43,0.6,0.7
4:8:56:23:27174,40.14,-26.56,-168.54,-0.45,0.57,0.66
4:8:56:24:27679,39.42,-26.39,-169.58,-0.46,0.56,0.7
4:8:56:24:27775,39.98,-27.27,-170.33,-0.57,0.65,0.71
4:8:56:24:27871,43.22,-28.03,-173.93,-0.45,0.57,0.59
4:8:56:24:27984,45.82,-29.05,-176.37,-0.45,0.61,0.59
4:8:56:24:28079,47.83,-29.57,-177.47,-0.51,0.66,0.63
4:8:56:25:28191,50.73,-30.77,-179.35,-0.6,0.72,0.62
4:8:56:25:28585,69.34,-38.49,167.9,-0.64,0.73,0.27
4:8:56:25:28662,71.12,-39.34,166.31,-0.57,0.72,0.23
4:8:56:25:28790,69.8,-39.12,167.28,-0.57,0.7,0.27
4:8:56:25:28886,65.54,-38.4,170.56,-0.64,0.69,0.34
4:8:56:25:28982,62.27,-37.99,172.5,-0.67,0.71,0.36
4:8:56:25:29094,60.15,-37.77,172.63,-0.62,0.7,0.46
4:8:56:25:29174,59.8,-38.01,172.17,-0.63,0.72,0.44
4:8:56:26:29687,67.4,-39.33,161.39,-0.64,0.68,0.31
4:8:56:26:29799,72.17,-39.95,154.38,-0.7,0.78,0.26
4:8:56:26:29895,71.61,-37.26,151.61,-0.42,0.7,0.32
4:8:56:26:29975,81.22,-42.3,141.35,-0.68,0.72,0.14
4:8:56:26:30072,91.64,-44.37,129.46,-0.63,0.71,-0.05
4:8:56:27:30184,99.74,-44.55,119.36,-0.59,0.71,-0.13
4:8:56:27:30579,105.4,-39.96,110.72,-0.62,0.78,-0.15
4:8:56:27:30690,104.61,-38.97,111.36,-0.65,0.75,-0.2
4:8:56:27:30786,104.92,-37.72,109.68,-0.63,0.79,-0.25
4:8:56:27:30882,104.27,-34.93,107.34,-0.49,0.79,-0.17
4:8:56:27:30978,102.04,-34.21,108.87,-0.55,0.79,-0.15
4:8:56:27:31075,103.4,-35.69,107.73,-0.62,0.85,-0.18
4:8:56:28:31186,103.58,-36.09,109.35,-0.57,0.79,-0.2
4:8:56:28:31666,111.32,-33.61,145.78,-0.66,0.82,-0.21
4:8:56:28:31763,116.88,-34.58,145.73,-0.65,0.71,-0.33
4:8:56:28:31875,125.87,-34.17,142.07,-0.56,0.59,-0.48
4:8:56:28:31971,134.15,-32.18,137.71,-0.52,0.51,-0.58
4:8:56:28:32067,136.35,-31.35,135.12,-0.55,0.62,-0.62
4:8:56:28:32163,137.27,-31.78,133.4,-0.6,0.65,-0.55
4:8:56:29:32609,141.73,-31.1,127.31,-0.52,0.55,-0.66
4:8:56:29:32672,141.25,-31.25,126.7,-0.49,0.58,-0.65
4:8:56:29:32784,140.29,-31.3,128.88,-0.45,0.59,-0.6
4:8:56:29:32880,140.84,-32.01,131.63,-0.52,0.72,-0.55
4:8:56:29:32976,140.47,-34.1,135.16,-0.69,0.6,-0.71
4:8:56:29:33088,140.8,-34.41,137.28,-0.56,0.67,-0.57
4:8:56:30:33184,144.31,-33.91,137.4,-0.58,0.55,-0.67
4:8:56:30:33662,149.52,-29.02,143.89,-0.5,0.42,-0.72
4:8:56:30:33790,149.37,-30.59,147.5,-0.57,0.4,-0.65
4:8:56:30:33886,149.13,-32.77,150.97,-0.61,0.42,-0.81
4:8:56:30:33982,149.4,-32.91,152.93,-0.56,0.43,-0.68
4:8:56:30:34077,152.41,-32.79,151.99,-0.51,0.2,-0.83
4:8:56:30:34174,155.15,-34.44,145.44,-0.52,0.33,-0.54
4:8:56:31:34684,123.43,-55.6,130.42,-1.11,0.56,-0.2
4:8:56:31:34780,112.44,-53.36,130.82,-1.12,0.46,0.12
4:8:56:31:34876,104.99,-51.89,128.98,-0.68,0.67,0.12
4:8:56:31:34987,109.5,-47.3,124.53,-0.43,0.57,-0.04
4:8:56:31:35068,115.94,-46.19,123.84,-0.7,0.43,-0.49
4:8:56:31:35179,117.05,-53.7,124.82,-1.35,0.46,0.08
4:8:56:32:35669,92.68,-56.44,140.62,-0.74,0.5,0.16
4:8:56:32:35765,83.28,-61.9,146.91,-1,0.46,0.13
4:8:56:32:35877,80.6,-60.46,148.37,-0.74,0.42,0.06
4:8:56:32:35973,81.36,-59.21,148.29,-0.75,0.37,0
4:8:56:32:36085,81.42,-57.77,150.55,-1.03,0.57,0.13
4:8:56:33:36181,86.39,-55.79,147.99,-1.15,0.57,0.3
4:8:56:33:36277,69.03,-56.86,160.29,-1.08,0.41,0.28
4:8:56:33:36670,66.56,-68.8,156.56,-1.13,0.25,0.2
4:8:56:33:36782,55.55,-64.75,161.22,-0.81,0.28,0.29
4:8:56:33:36861,52.66,-66.03,162.05,-0.71,0.32,0.07
4:8:56:33:36990,57.81,-66.1,158.51,-0.77,0.41,0.16
4:8:56:33:37086,57.54,-63.13,161.82,-1.18,0.48,0.17
4:8:56:34:37181,50.52,-59.71,169.32,-1.18,0.56,0.52
4:8:56:34:37682,32.11,-61.3,-167.73,-1.19,0.31,0.43
4:8:56:34:37779,35.56,-59.73,-171.22,-0.86,0.32,0.29
4:8:56:34:37874,41.61,-56.57,-175.74,-0.66,0.42,0.28
4:8:56:34:37986,44.48,-54.84,-176.13,-0.69,0.45,0.24
4:8:56:34:38082,46.59,-52.62,-173.61,-1.05,0.57,0.53
4:8:56:35:38226,44.59,-50.1,-168.95,-1.04,0.69,0.72
4:8:56:35:38696,34.38,-39.13,-161.83,-0.85,0.54,0.82
4:8:56:35:38761,32.41,-39.13,-160.77,-0.48,0.44,0.52
4:8:56:35:38889,31.33,-39.52,-156.78,-0.45,0.46,0.47
4:8:56:35:38985,31.16,-37.6,-153.35,-0.59,0.4,0.71
4:8:56:35:39113,31.72,-36.45,-148.62,-0.8,0.46,1.21
4:8:56:35:39161,30.95,-31.7,-142.9,-0.63,0.5,0.68
4:8:56:36:39677,35.1,-43.81,-147.75,-0.76,0.38,0.99
4:8:56:36:39789,33.02,-42.42,-147.15,-0.46,0.4,0.38
4:8:56:36:39870,32.3,-42.96,-146.77,-0.57,0.37,0.48
4:8:56:36:39981,32.94,-43.03,-147.41,-0.69,0.42,0.69
4:8:56:36:40078,35.97,-42.34,-147.36,-0.86,0.44,0.64
4:8:56:36:40174,38.46,-40.92,-148.19,-0.79,0.39,0.67
4:8:56:37:40669,32.12,-41.48,-164.94,-0.73,0.35,0.96
4:8:56:37:40764,29.16,-40.28,-168.57,-0.51,0.28,0.65
4:8:56:37:40860,28.94,-39.26,-169.87,-0.41,0.45,0.54
4:8:56:37:40988,33.43,-38.3,-170.15,-0.56,0.69,0.58
4:8:56:37:41085,36.39,-38.17,-165.51,-0.87,0.44,0.75
4:8:56:38:41180,38.39,-38.26,-161.71,-0.63,0.31,0.89
4:8:56:38:41673,36.72,-36.89,-162.14,-0.65,0.41,0.7
4:8:56:38:41769,32.39,-34.2,-164.93,-0.5,0.34,0.83
4:8:56:38:41865,28.39,-29.82,-166.01,-0.38,0.53,0.75
4:8:56:38:41977,29.86,-28.53,-166.83,-0.36,0.47,0.72
4:8:56:38:42089,30.66,-28.03,-163.2,-0.58,0.45,0.81
4:8:56:39:42200,31.99,-27.17,-159.96,-0.48,0.47,0.97
4:8:56:39:42681,22.38,-24.33,-149.64,-0.38,0.27,0.88
4:8:56:39:42792,17.88,-23.45,-149.44,-0.4,0.31,0.91
4:8:56:39:42872,14.52,-22.96,-149.21,-0.34,0.24,0.96
4:8:56:39:42969,13.22,-21.93,-147.77,-0.35,0.19,0.93
4:8:56:39:43080,12.38,-20.12,-144.77,-0.39,0.23,0.98
4:8:56:39:43176,12.71,-16.74,-143.4,-0.32,0.24,0.93
4:8:56:40:43677,14.25,-5.28,-145.41,-0.08,0.24,0.97
4:8:56:40:43773,14.33,-3.82,-144.86,-0.07,0.24,0.95
4:8:56:40:43869,15.65,-3.21,-144.15,-0.03,0.27,0.89
4:8:56:40:43965,16.89,-3.65,-142.55,-0.03,0.25,0.9
4:8:56:40:44077,16.39,-2.07,-140.83,-0.12,0.23,0.92
4:8:56:40:44173,13.87,-4.23,-140.93,-0.09,0.38,1
4:8:56:41:44598,-3.83,-8.42,-144.09,0.03,-0.11,0.95
4:8:56:41:44678,-7.86,-4.26,-153.07,-0.22,-0.25,0.86
4:8:56:41:44837,-9.87,-4.42,-153.19,-0.14,-0.04,1
4:8:56:41:44917,-13.79,-4.5,-150.75,-0.07,-0.21,0.94
4:8:56:41:44982,-12.1,-3.57,-149.12,-0.07,-0.18,0.98
4:8:56:41:45093,-15.15,-2.77,-146.33,-0.08,-0.28,0.96
4:8:56:42:45190,-17.63,-3.02,-145.18,-0.06,-0.3,0.94
4:8:56:42:45677,-15.12,0.74,-143.39,-0.01,-0.23,0.95
4:8:56:42:45789,-14.57,1.56,-143.53,0.03,-0.22,0.98
4:8:56:42:45884,-14.31,2.05,-143.31,0.03,-0.23,0.95
4:8:56:42:45980,-14.41,2.56,-142.56,0.04,-0.23,0.95
4:8:56:42:46076,-14.72,2.97,-141.21,0.03,-0.26,0.94
4:8:56:43:46188,-14.86,3.93,-139.87,0.05,-0.27,0.95
4:8:56:43:46596,-7.11,10.05,-132.39,0.19,-0.09,1.01
4:8:56:43:46690,-4.56,9.87,-129.95,0.19,-0.11,0.95
4:8:56:43:46769,-2.25,8.73,-129.99,0.1,-0.05,0.93
4:8:56:43:46914,-5.21,7.18,-130.48,0.09,-0.09,0.99
4:8:56:43:46962,-5.22,5.51,-133.5,0.12,-0.14,0.99
4:8:56:43:47089,-3.66,4.22,-137.91,0.11,-0.03,0.98
4:8:56:44:47185,-3.2,2.98,-141.82,0.03,-0.04,0.96
4:8:56:44:47687,-7.35,4.37,-157.63,0.05,-0.11,0.95
4:8:56:44:47782,-8.41,5.9,-154.05,0.08,-0.15,0.96
4:8:56:44:47879,-7.57,8.52,-149.89,0.14,0,1.05
4:8:56:44:47974,-6.94,12.35,-145.37,0.2,-0.11,1.04
4:8:56:44:48087,-4.47,13.73,-142.96,0.16,-0.04,0.98
4:8:56:45:48182,-2.14,16.96,-141.26,0.24,0.06,0.9
4:8:56:45:48617,-12.98,20.74,-141.61,0.34,-0.17,0.85
4:8:56:45:48679,-15.55,23.61,-140.96,0.46,-0.21,0.87
4:8:56:45:48790,-18.92,22.86,-142.06,0.39,-0.3,0.85
4:8:56:45:48887,-19.43,20.7,-144.6,0.28,-0.3,0.83
4:8:56:45:48982,-23.31,19.75,-146.44,0.3,-0.42,0.85
4:8:56:45:49094,-24.9,19.64,-146.43,0.35,-0.42,0.87
4:8:56:46:49190,-25.76,18.75,-146.35,0.3,-0.42,0.83
4:8:56:46:49682,-25.4,20.35,-152.02,0.32,-0.37,0.84
4:8:56:46:49778,-23.96,20.46,-152.48,0.32,-0.33,0.87
4:8:56:46:49890,-23.52,20.03,-152.18,0.31,-0.35,0.84
4:8:56:46:49986,-23.88,19.55,-151.87,0.31,-0.35,0.84
4:8:56:46:50082,-23.24,19.78,-151.24,0.33,-0.36,0.85
4:8:56:47:50225,-22.93,19.84,-150.72,0.31,-0.35,0.82
4:8:56:47:50620,-23.73,19.97,-145.91,0.34,-0.36,0.83
4:8:56:47:50681,-24.43,19.93,-144.56,0.32,-0.38,0.82
4:8:56:47:50777,-24.86,20.37,-143.53,0.34,-0.39,0.84
4:8:56:47:50890,-25.44,20.75,-143.3,0.31,-0.41,0.84
4:8:56:47:50970,-25.31,21.36,-143.22,0.33,-0.39,0.84
4:8:56:47:51081,-25.47,21.06,-143.01,0.33,-0.41,0.84
4:8:56:47:51177,-26.18,21.1,-142.84,0.37,-0.43,0.83
4:8:56:48:51681,-24.52,20.57,-144.19,0.33,-0.39,0.83
4:8:56:48:51777,-24.39,20.59,-144.46,0.33,-0.39,0.84
4:8:56:48:51889,-24.67,20.51,-144.59,0.34,-0.39,0.86
4:8:56:48:51985,-25.78,20.23,-144.48,0.31,-0.38,0.9
4:8:56:48:52081,-29.11,19.34,-143.99,0.28,-0.46,0.8
4:8:56:49:52192,-26.44,19.54,-142.46,0.33,-0.43,0.82
4:8:56:49:52674,-25.75,21.98,-150.7,0.34,-0.42,0.84
4:8:56:49:52771,-26.33,23.84,-152.9,0.4,-0.34,0.81
4:8:56:49:52899,-24.61,26.85,-154.32,0.52,-0.36,0.85
4:8:56:49:52979,-26.74,27.58,-157.1,0.45,-0.46,0.76
4:8:56:49:53074,-28.16,32.43,-156.15,0.55,-0.39,0.72
4:8:56:50:53202,-30.04,43.76,-153.88,0.7,-0.36,0.69
4:8:56:50:53681,81.9,54.02,-16.48,0.8,0.67,-0.06
4:8:56:50:53792,70.39,68.82,-31.46,0.82,0.43,0.19
4:8:56:50:53889,16.91,83.98,-91.22,0.91,-0.13,0.06
4:8:56:50:53970,-69.34,74.55,176.1,1.11,-0.42,0.08
4:8:56:50:54081,-72.96,67.35,170.76,0.95,-0.57,0.26
4:8:56:51:54193,-80.28,66.08,161.51,0.91,-0.42,0.02
4:8:56:51:54603,-95.32,67.56,154.54,0.93,-0.34,-0.06
4:8:56:51:54683,-91.15,71.05,160.54,0.93,-0.26,0.05
4:8:56:51:54763,-93.88,70.1,160.45,1.02,-0.44,-0.1
4:8:56:51:54891,-94.67,68.62,161.59,0.87,-0.34,0
4:8:56:51:54986,-93.36,71.28,164.58,0.94,-0.29,0.04
4:8:56:51:55082,-99.24,71.49,161.57,0.94,-0.35,-0.01
4:8:56:51:55178,-99.62,69.27,161.17,0.92,-0.38,-0.04
4:8:56:52:55677,-76.45,81.36,172.01,0.91,-0.16,0.14
4:8:56:52:55789,-98.69,78.14,149.45,0.91,-0.01,0.04
4:8:56:52:55902,-101.05,79.26,147.13,1.03,-0.27,-0.02
4:8:56:52:55997,-84.67,79.44,163.01,0.9,-0.13,0.02
4:8:56:52:56094,-84.11,80.02,164.22,0.94,-0.19,0
4:8:56:53:56221,-91.76,78.41,158.43,0.96,-0.17,0.03
4:8:56:54:57923,-106.46,71.88,148.95,0.95,-0.35,-0.06
4:8:56:54:57923,-108.06,73.58,148.67,0.87,-0.19,-0.03
4:8:56:54:57988,-108.57,74.96,151.26,1.03,-0.26,-0.09
4:8:56:54:57989,-100.06,73.31,159.51,0.96,-0.28,-0.03
4:8:56:54:57989,-97.84,73,162.1,0.94,-0.23,-0.06
4:8:56:54:57990,-98.48,72.33,162.61,0.95,-0.33,-0.06
4:8:56:54:57990,-99.05,71.71,162.85,0.92,-0.31,-0.07
4:8:56:54:58057,-97.21,70.55,165.21,0.95,-0.4,-0.05
4:8:56:54:58058,-97.74,70.92,164.39,0.9,-0.33,-0.09
4:8:56:54:58058,-93.62,71.23,167.16,0.95,-0.26,0
4:8:56:54:58059,-89.54,72.84,171.3,0.85,-0.31,-0.1
4:8:56:54:58059,-86.02,73.13,174.13,0.91,-0.34,-0.02
4:8:56:54:58134,-94.67,72,164.3,0.95,-0.26,0
4:8:56:55:58198,-104.07,73.7,157.61,0.93,-0.21,-0.08
4:8:56:55:58753,-114.54,84.54,143.73,1.01,-0.1,-0.06
4:8:56:55:58753,-154.6,84.52,104.38,1.06,-0.05,-0.11
4:8:56:55:58815,-164.06,82.76,95.16,1.04,-0.05,-0.21
4:8:56:55:58879,-117.32,85.42,141.73,0.98,0.08,-0.05
4:8:56:55:59007,-107.59,83.89,152.75,1,-0.15,-0.11
4:8:56:55:59087,-99.88,83.04,159.74,0.98,-0.14,-0.02
4:8:56:56:59199,-69.73,83.03,-170.69,0.97,-0.19,0
4:8:56:56:59604,-74.75,82.33,-173.68,1,-0.11,-0.03
4:8:56:56:59669,-61.74,80.75,-162.73,0.95,-0.09,0.04
4:8:56:56:59797,-64.28,78.61,-167.52,0.95,-0.18,0.08
4:8:56:56:59893,-74.65,77.26,-178.62,0.95,-0.22,0.03
4:8:56:56:59973,-75.33,77.57,179.71,0.94,-0.22,0.04
4:8:56:56:60101,-80.5,76.47,172.86,0.96,-0.32,-0.02
4:8:56:57:60197,-81.06,73.69,168.89,0.9,-0.3,0.08
4:8:56:57:60594,-86.1,70.83,165.65,0.85,-0.35,0.02
4:8:56:57:60705,-102.64,75.94,153.68,0.98,-0.32,-0.01
4:8:56:57:60786,-150.35,85,108.56,0.98,0.04,-0.09
4:8:56:57:60897,-125.72,78.85,131.57,1.06,-0.17,-0.1
4:8:56:57:60992,-112.94,64.3,146.15,0.88,-0.4,-0.18
4:8:56:57:61089,-113.37,62.78,147.11,0.95,-0.38,-0.13
4:8:56:58:61185,-113.29,63.42,148.01,0.9,-0.39,-0.19
4:8:56:58:61582,-113.05,66.4,149.33,0.89,-0.35,-0.16
4:8:56:58:61661,-112.34,66,150.06,0.89,-0.41,-0.16
4:8:56:58:61789,-111.3,65.82,151,0.9,-0.37,-0.12
4:8:56:58:61885,-110.15,64.87,152.39,0.88,-0.38,-0.13
4:8:56:58:61981,-110.48,63.43,153.03,0.89,-0.45,-0.19
4:8:56:58:62093,-109.97,63.24,153.68,0.86,-0.41,-0.14
4:8:56:59:62189,-109.88,63.02,154.06,0.87,-0.43,-0.17
4:8:56:59:62606,-110.23,57.03,157.67,0.83,-0.56,-0.28
4:8:56:59:62682,-106.79,55.6,160.79,0.78,-0.54,-0.14
4:8:56:59:62794,-104.43,58.3,161.42,0.74,-0.51,-0.19
4:8:56:59:62891,-104.75,62.15,158.24,0.87,-0.44,-0.15
4:8:56:59:62986,-105.35,61.35,155.89,0.87,-0.48,-0.17
4:8:56:59:63083,-103.9,60.94,155.92,0.85,-0.45,-0.13
4:8:57:0:63210,-103.92,60.59,154.43,0.9,-0.46,-0.11
4:8:57:0:63618,-101.66,57.13,156.54,0.76,-0.51,-0.13
4:8:57:0:63728,-101.75,58.23,156.81,0.8,-0.59,-0.16
4:8:57:0:63808,-101.51,59.95,156.21,0.82,-0.49,-0.13
4:8:57:0:63888,-105.54,60.69,151.07,0.83,-0.46,-0.13
4:8:57:0:64016,-111.66,61.94,144.82,0.88,-0.37,-0.18
4:8:57:0:64097,-118.43,58.1,139.58,0.92,-0.49,-0.35
4:8:57:1:64192,-117.91,54.17,141.86,0.71,-0.44,-0.29
4:8:57:1:64593,-127.14,59.05,132.91,1.01,-0.25,-0.11
4:8:57:1:64688,-128.16,55.61,134.41,0.6,-0.56,-0.33
4:8:57:1:64800,-137.83,64.3,121.61,1.01,-0.05,-0.23
4:8:57:1:64880,-139.79,65.47,119.6,0.91,-0.28,-0.33
4:8:57:1:64976,-140.3,66.79,121.34,0.98,-0.28,-0.25
4:8:57:1:65120,-131.64,67.67,134.67,0.95,-0.37,-0.2
4:8:57:1:65167,-128.81,67.17,141.89,0.79,-0.22,-0.2
4:8:57:2:65627,-156.54,61.08,127.59,0.91,-0.19,-0.55
4:8:57:2:65706,-157.88,61.45,128.14,0.89,-0.13,-0.47
4:8:57:2:65786,-156.07,63.21,130.06,1.04,-0.26,-0.43
4:8:57:2:65883,-145.9,67.81,138.37,0.94,-0.27,-0.22
4:8:57:2:65994,-143.68,70.52,138.58,0.81,-0.15,-0.26
4:8:57:2:66090,-144.56,69.12,135.54,0.88,-0.19,-0.38
4:8:57:3:66186,-144.38,69.97,133.06,0.93,-0.19,-0.33
4:8:57:3:66615,-133.65,64.2,139.32,1.04,-0.38,-0.34
4:8:57:3:66693,-128.07,65.54,144.23,0.8,-0.32,-0.24
4:8:57:3:66773,-131.46,65.28,140.53,0.84,-0.3,-0.34
4:8:57:3:66885,-136.41,64.8,135.59,0.92,-0.29,-0.38
4:8:57:3:66996,-136.95,64.13,135.39,0.91,-0.32,-0.34
4:8:57:3:67061,-135.79,63.18,136.91,0.92,-0.29,-0.36
4:8:57:4:67189,-131.93,63.3,139.5,1.07,-0.65,-0.38
4:8:57:4:67582,-125.93,58.26,141.07,0.82,-0.41,-0.35
4:8:57:4:67693,-127.11,57.73,140.35,0.85,-0.45,-0.34
4:8:57:4:67772,-124.38,56.94,143.43,0.92,-0.45,-0.26
4:8:57:4:67869,-120.93,55.04,145.97,0.69,-0.45,-0.25
4:8:57:4:67981,-122.49,59.94,143.2,0.87,-0.37,-0.25
4:8:57:4:68092,-123.63,58.87,141.86,0.81,-0.46,-0.31
4:8:57:5:68188,-124.94,59.08,139.75,0.87,-0.42,-0.3
4:8:57:5:68592,-125.78,58.37,137.75,0.86,-0.45,-0.3
4:8:57:5:68670,-126.63,61.02,137.54,1.24,-0.37,-0.25
4:8:57:5:68766,-122.77,58.85,141.94,0.65,-0.38,-0.27
4:8:57:5:68894,-129.67,65.53,138.06,0.99,-0.2,-0.3
4:8:57:5:68990,-135.07,66.38,133.64,0.89,-0.28,-0.32
4:8:57:5:69086,-131.28,67.8,136.54,0.95,-0.31,-0.29
4:8:57:6:69214,-125.41,70.49,142.14,0.94,-0.28,-0.18
4:8:57:6:69594,-121.8,72.38,145.03,0.94,-0.25,-0.16
4:8:57:6:69675,-118.94,72.41,148.05,0.95,-0.27,-0.14
4:8:57:6:69785,-115.35,72.46,151.53,0.95,-0.28,-0.14
4:8:57:6:69882,-110.81,72.29,155.59,0.94,-0.26,-0.12
4:8:57:6:69978,-107.34,71.96,158.92,0.92,-0.29,-0.1
4:8:57:6:70106,-106.82,71.65,159.46,0.93,-0.32,-0.1
4:8:57:6:70169,-107.11,71.5,159.13,0.92,-0.3,-0.09
4:8:57:7:70583,-110.22,71.16,155.69,0.93,-0.29,-0.11
4:8:57:7:70677,-110.59,71.19,155.25,0.94,-0.3,-0.12
4:8:57:7:70788,-111.05,71.29,154.72,0.93,-0.29,-0.12
4:8:57:7:70884,-111.1,71.39,154.69,0.94,-0.29,-0.11
4:8:57:7:70996,-110.54,71.52,155.1,0.98,-0.32,-0.11
4:8:57:7:71108,-106.19,72.33,159.27,0.92,-0.32,-0.03
4:8:57:8:71204,-106.48,72.78,158.34,0.84,-0.25,-0.17
4:8:57:8:71598,-123.09,69.19,138.65,0.81,-0.32,-0.14
4:8:57:8:71694,-121.89,68.97,140.59,0.9,-0.3,-0.1
4:8:57:8:71774,-118.96,70.7,143,0.91,-0.27,-0.1
4:8:57:8:71870,-115.09,72.23,147,0.94,-0.28,-0.12
4:8:57:8:71966,-109.73,73.73,152.94,0.92,-0.2,-0.1
4:8:57:8:72062,-103.51,74.23,158.74,0.9,-0.24,-0.04
4:8:57:9:72190,-106.26,74.66,156.07,1,-0.25,-0.06
4:8:57:9:72585,-95.56,71.12,165.84,0.92,-0.33,-0.03
4:8:57:9:72665,-102.95,63.88,157.75,0.94,-0.38,-0.1
4:8:57:9:72761,-105.63,46.86,151.95,0.61,-0.8,-0.22
4:8:57:9:72889,-104.06,35.26,148.47,0.46,-0.84,-0.12
4:8:57:9:73000,-108.08,45.03,145.3,0.77,-0.54,-0.22
4:8:57:9:73081,-115.35,49.38,141.99,0.75,-0.52,-0.46
4:8:57:9:73177,-121.36,46.52,143.56,0.74,-0.68,-0.39
4:8:57:10:73595,-119.28,56.05,141.48,0.87,-0.53,-0.22
4:8:57:10:73704,-114.48,54.93,145.25,0.79,-0.52,-0.26
4:8:57:10:73800,-114.94,54.62,145.75,0.86,-0.44,-0.27
4:8:57:10:73896,-116.17,53.65,146.39,0.71,-0.55,-0.23
4:8:57:10:73977,-118.96,55.82,144.87,0.81,-0.4,-0.63
4:8:57:10:74072,-121.59,58.93,142.39,0.72,-0.15,-0.25
4:8:57:11:74183,-123.07,57.26,139.43,0.88,-0.63,0.07
4:8:57:11:74600,-120.81,58.79,142.99,0.87,-0.42,-0.26
4:8:57:11:74695,-119.53,58.75,143.85,0.85,-0.47,-0.22
4:8:57:11:74791,-119.59,60.12,143.68,0.88,-0.38,-0.23
4:8:57:11:74888,-120,58.5,144.25,0.82,-0.43,-0.24
4:8:57:11:74984,-121.29,56.49,144.23,0.8,-0.49,-0.24
4:8:57:11:75095,-122.52,54.56,143.89,0.86,-0.52,-0.32
4:8:57:11:75175,-122.03,54.93,143.9,0.88,-0.48,-0.36
4:8:57:12:75601,-114.74,62.48,147.2,0.92,-0.28,-0.26
4:8:57:12:75681,-111.49,62.76,150.08,0.93,-0.47,-0.13
4:8:57:12:75778,-105.77,64.54,155.62,0.77,-0.47,-0.13
4:8:57:12:75889,-100.7,68.16,161.5,0.93,-0.35,-0.07
4:8:57:12:75985,-96.39,68.92,164.25,0.86,-0.31,0.03
4:8:57:12:76129,-92.71,67.97,168.62,0.9,-0.34,-0.04
4:8:57:13:76193,-92.5,65.24,168.11,0.85,-0.43,-0.03
4:8:57:13:76587,-88.14,63.98,173.32,0.81,-0.43,-0.02
4:8:57:13:76667,-71.45,65.15,-167.56,0.88,-0.36,0.23
4:8:57:13:76779,-64.35,64.83,-159.38,0.91,-0.4,0.22
4:8:57:13:76891,-63.78,64.35,-160.97,0.81,-0.36,0.23
4:8:57:13:76987,-62.27,64.08,-162.52,0.92,-0.4,0.21
4:8:57:13:77083,-61.88,65.31,-165.16,0.85,-0.34,0.19
4:8:57:14:77195,-66.39,66.19,-172.79,0.86,-0.5,0.14
4:8:57:14:77584,-44.38,57.2,-150.82,0.78,-0.31,0.46
4:8:57:14:77678,-49.31,58.02,-156.4,0.73,-0.39,0.34
4:8:57:14:77775,-51.52,59.49,-158.66,0.81,-0.39,0.33
4:8:57:14:77886,-55.1,61.29,-162.38,0.84,-0.42,0.25
4:8:57:14:77983,-55.38,62.32,-162.42,0.87,-0.37,0.26
4:8:57:14:78078,-56.74,62.79,-163.13,0.88,-0.38,0.23
4:8:57:15:78191,-74.42,63.53,-177.72,0.79,-0.35,0.07
4:8:57:15:78583,-85.68,62.3,171.77,0.86,-0.45,0.05
4:8:57:15:78679,-86.85,62.45,170.87,0.95,-0.49,0.02
4:8:57:15:78823,-85.27,62.92,172.02,0.94,-0.46,0.1
4:8:57:15:78870,-80.25,63.37,175.74,0.88,-0.43,0.1
4:8:57:15:79014,-75.37,63.67,178.62,0.86,-0.38,0.08
4:8:57:15:79111,-78.8,61.83,172.58,0.84,-0.43,0.09
4:8:57:16:79190,-87.18,56.8,162.57,0.81,-0.62,0.09
4:8:57:16:79586,-79.3,66.19,173.24,0.92,-0.37,0.04
4:8:57:16:79696,-82.15,61.19,168.82,0.87,-0.46,0.07
4:8:57:16:79808,-90.97,48.18,157.16,0.73,-0.63,0.02
4:8:57:16:79872,-92.75,41,154.47,0.58,-0.75,-0.06
4:8:57:16:79984,-91.51,42.78,155.48,0.67,-0.72,-0.01
4:8:57:16:80080,-90.16,43.78,160.03,0.64,-0.79,-0.03
4:8:57:17:80207,-90.06,44.8,160.07,0.63,-0.71,0.08
4:8:57:17:80588,-87.65,46.48,160.18,0.82,-0.76,-0.06
4:8:57:17:80668,-91.65,45.89,158.94,0.68,-0.67,-0.02
4:8:57:17:80779,-90.79,48.99,161.38,0.79,-0.67,-0.05
4:8:57:17:80891,-90.38,51.38,164,0.76,-0.62,0.01
4:8:57:17:81004,-90.41,52.14,166.38,0.8,-0.62,0
4:8:57:17:81084,-87.97,52.46,169.31,0.76,-0.58,0.04
4:8:57:18:81196,-85.42,55.79,172.42,0.77,-0.59,0.01
4:8:57:18:81586,-71.24,56.06,-172.33,0.84,-0.55,0.26
4:8:57:18:81713,-70.04,54.04,-172.96,0.81,-0.52,0.26
4:8:57:18:81793,-67.89,53.5,-172.42,0.77,-0.46,0.31
4:8:57:18:81889,-69.62,53.16,-173.11,0.78,-0.6,0.2
4:8:57:18:81985,-68.03,53.8,-170.81,0.82,-0.48,0.19
4:8:57:18:82097,-65.67,55.15,-167.8,0.86,-0.49,0.24
4:8:57:18:82178,-63.76,54.74,-165.99,0.76,-0.45,0.28
4:8:57:19:82590,-72.28,49.62,-171.96,0.54,-0.6,0.13
4:8:57:19:82670,-68.88,58.93,-165.65,0.79,-0.4,0.18
4:8:57:19:82781,-69.57,63.9,-166.52,1.11,-0.33,0.11
4:8:57:19:82878,-76.54,60.29,-175.67,0.71,-0.42,0.12
4:8:57:19:82974,-76.43,64.87,-171.64,0.77,-0.41,0.01
4:8:57:19:83086,-66.35,73.49,-158.65,1.04,-0.3,0.26
4:8:57:20:83182,-74.92,76.5,-164.94,1,-0.23,-0.09
4:8:57:20:83603,176.19,80.5,82.93,0.94,0.03,-0.18
4:8:57:20:83698,175.48,79.98,82.45,0.95,0.01,-0.21
4:8:57:20:83795,-178.95,79.01,90.28,1.03,0.07,-0.13
4:8:57:20:83874,-178.12,76.11,94.19,1.02,-0.06,-0.25
4:8:57:20:83970,-178.21,75.34,94.37,0.96,0,-0.24
4:8:57:20:84066,-179.33,75.37,93.38,0.88,0.04,-0.25
4:8:57:20:84162,-178.58,75.25,93.99,1.01,-0.01,-0.27
4:8:57:21:84586,-160.21,78.94,108.66,1.02,-0.12,-0.15
4:8:57:21:84664,-115.35,73.61,149.85,1.02,-0.39,-0.1
4:8:57:21:84760,-115.24,72.69,149.58,0.93,-0.25,-0.12
4:8:57:21:84872,-109.98,73.75,153.62,0.89,-0.27,-0.1
4:8:57:21:84968,-104.66,74.98,159.76,0.95,-0.23,0
4:8:57:21:85064,-96.66,76.21,167.4,0.98,-0.19,0.01
4:8:57:21:85176,-97.31,76.41,165.65,0.92,-0.21,0
4:8:57:22:85582,-88.01,78.91,173.28,0.97,-0.2,-0.01
4:8:57:22:85659,-92.16,78.88,168.52,0.9,-0.27,-0.01
4:8:57:22:85787,-104.02,79.47,155.8,0.95,-0.18,-0.01
4:8:57:22:85883,-111.94,80.56,146.9,1.03,-0.21,-0.06
4:8:57:22:85964,-119.49,81.85,138.83,1.06,-0.11,-0.23
4:8:57:22:86092,-110.06,83.24,147.47,0.9,-0.16,-0.01
4:8:57:23:86187,-110.77,83.94,147.09,0.96,-0.09,-0.02
4:8:57:23:86587,-136.6,85.65,121.59,0.95,-0.06,0.01
4:8:57:23:86666,-136.05,85.99,121.53,1.03,0.01,-0.12
4:8:57:23:86778,-149.26,85.65,108.99,0.95,-0.01,-0.02
4:8:57:23:86874,-163.9,83.08,94.94,0.91,0,-0.15
4:8:57:23:86986,-163.45,83.53,93.6,0.95,-0.1,-0.14
4:8:57:23:87082,-163.83,85.32,92.79,1.02,0,-0.11
4:8:57:23:87178,-168.03,87.33,88.37,1,0,-0.01
4:8:57:24:87625,39.04,88.8,-67.03,0.95,0,-0.02
4:8:57:24:87704,66.78,89.51,-39.45,0.91,0.03,-0.09
4:8:57:24:87784,6.77,89.6,-99.94,0.99,0,-0.03
4:8:57:24:87880,-60.5,89.6,-167.12,0.97,0.02,-0.09
4:8:57:24:88007,-97.55,89.28,156.06,0.96,-0.12,0.04
4:8:57:24:88071,-44.14,89.58,-150.25,1,0.01,0.01
4:8:57:24:88168,-45.78,89.6,-151.81,1.01,0.01,0.04
4:8:57:25:88586,-114.69,89.03,138.79,0.98,-0.05,-0.01
4:8:57:25:88666,-116.22,89.1,137.13,1.03,0.02,0.01
4:8:57:25:88794,-127.98,87.99,125.56,0.98,0,-0.01
4:8:57:25:88890,-130.44,87.23,122.96,0.97,-0.02,-0.03
4:8:57:25:88986,-133.83,86.94,119.55,0.98,-0.04,-0.05
4:8:57:25:89083,-137.55,86.86,115.8,0.98,-0.03,-0.04
4:8:57:25:89178,-141.48,86.63,111.87,0.99,-0.02,-0.05
4:8:57:26:89589,-149.83,86.28,103.98,0.98,0,-0.05
4:8:57:26:89684,-147.9,86.15,105.91,0.97,-0.05,-0.02
4:8:57:26:89780,-145.22,85.83,108.82,0.98,-0.07,-0.07
4:8:57:26:89876,-145.6,85.78,108.44,0.96,-0.05,-0.07
4:8:57:26:89988,-148.01,86.48,106.06,0.99,-0.04,-0.04
4:8:57:26:90068,-151.23,86.81,103.01,0.98,0,-0.05
4:8:57:27:90180,-151.6,86.72,102.62,0.98,-0.04,-0.05
4:8:57:27:90604,-147.63,87.71,106.84,0.99,-0.02,-0.02
4:8:57:27:90667,-152.74,87.69,101.65,0.98,-0.01,-0.01
4:8:57:27:90778,-146.4,87.4,108.16,0.96,-0.01,-0.04
4:8:57:27:90907,-152.4,87.63,102.22,0.96,-0.01,-0.07
4:8:57:27:90986,-160.46,87.97,94.05,1.01,-0.01,-0.02
4:8:57:27:91067,-167.12,87.1,87.49,0.95,-0.03,-0.04
4:8:57:27:91179,-160.25,86.69,94.46,0.93,0,-0.05
4:8:57:28:91590,-168.43,84.92,89.51,1,-0.01,-0.08
4:8:57:28:91671,-167.8,84.25,90.32,0.96,-0.05,-0.08
4:8:57:28:91782,-169.8,83.89,88.59,0.98,-0.04,-0.11
4:8:57:28:91879,-170.18,83.55,88.5,0.98,-0.02,-0.11
4:8:57:28:91975,-167.31,83.27,91.61,0.95,-0.02,-0.1
4:8:57:28:92070,-166.23,83.46,92.6,0.94,-0.01,-0.12
4:8:57:28:92166,-164.82,84.31,93.68,0.96,-0.06,-0.1
4:8:57:29:92590,-140.82,85.08,116.31,1.02,-0.04,-0.06
4:8:57:29:92670,-137.94,84.95,119.05,1,-0.07,-0.06
4:8:57:29:92766,-137.19,84.76,119.72,1.02,-0.07,-0.04
4:8:57:29:92878,-137.85,84,119.11,0.93,-0.07,-0.1
4:8:57:29:92990,-139.12,84.33,117.98,0.91,-0.08,-0.12
4:8:57:29:93118,-137.58,84.9,119.74,0.96,-0.09,-0.01
4:8:57:30:93182,-137.04,84.75,120.54,0.96,-0.04,-0.04
4:8:57:30:93591,-141.15,85.36,116.14,0.97,-0.04,-0.06
4:8:57:30:93672,-140.3,85.32,116.92,0.96,-0.07,-0.06
4:8:57:30:93768,-139.17,85.33,118.36,0.99,-0.06,-0.08
4:8:57:30:93864,-139.57,85.31,118.2,0.97,-0.04,-0.04
4:8:57:30:93975,-138.3,85.58,119.66,0.98,-0.04,-0.03
4:8:57:30:94071,-129.39,86.59,128.69,0.99,-0.03,0
4:8:57:31:94183,-93.47,88.4,164.6,0.98,0.02,-0.01
4:8:57:31:94587,20.28,66.37,-84.64,0.78,0.17,0.4
4:8:57:31:94667,15.2,55.94,-92.53,0.8,-0.13,0.36
4:8:57:31:94794,8.91,43.73,-102.83,0.45,0.12,0.78
4:8:57:31:94890,1.61,34.82,-115.48,0.74,0.05,0.87
4:8:57:31:94986,-2.68,32.25,-125.77,0.59,0,0.91
4:8:57:31:95099,-3.91,30.26,-133.75,0.52,0.07,0.92
4:8:57:32:95195,0.95,28.31,-136.15,0.4,0.07,0.88
4:8:57:32:95684,7.04,6.97,-136.32,0.21,0.12,1.03
4:8:57:32:95795,6.54,2.63,-135.97,0.14,0.12,1.03
4:8:57:32:95876,6.84,0.54,-136.09,0.09,0.07,1.01
4:8:57:32:95988,6.66,-0.78,-137.23,0.05,0.09,0.99
4:8:57:32:96099,6.06,-0.78,-140.96,0.06,0.08,0.99
4:8:57:32:96179,5.35,1.04,-146.91,0,0.09,1.04
4:8:57:33:96694,-0.48,2.75,-164.15,0.01,0.01,0.83
4:8:57:33:96774,-3.84,1.89,-163.88,0.01,0.03,0.88
4:8:57:33:96886,-5.46,2.07,-164.61,0.01,-0.04,1.14
4:8:57:33:96983,-3.75,3.11,-160.4,0.03,-0.11,1.13
4:8:57:33:97095,-0.79,2.96,-146.32,0.02,-0.12,1.08
4:8:57:33:97175,0.16,-0.45,-124.72,-0.01,-0.06,1.01
4:8:57:34:97595,-1.7,-9.97,-48.83,0.02,-0.03,0.99
4:8:57:34:97675,-0.92,-7.79,-42.49,0.02,-0.08,1.03
4:8:57:34:97787,-1.33,-5.27,-39.59,-0.05,-0.03,0.96
4:8:57:34:97883,-2.54,-5.14,-38.97,-0.06,-0.02,1.05
4:8:57:34:97995,-3.94,-6.78,-40.5,-0.05,0.01,1.05
4:8:57:34:98075,-5.38,-9.09,-43.16,-0.04,0,0.99
4:8:57:34:98171,-7.7,-10.23,-45.76,0.03,0.07,1.37
4:8:57:35:98597,-5.52,-10.76,-59.81,-0.01,-0.03,0.98
4:8:57:35:98675,-5.15,-10.55,-62.97,-0.02,-0.04,0.98
4:8:57:35:98771,-5.15,-10.57,-65.94,-0.03,-0.05,0.98
4:8:57:35:98867,-4.97,-10.41,-68.75,-0.04,-0.06,0.98
4:8:57:35:98978,-4.49,-9.92,-71.42,-0.03,-0.05,0.98
4:8:57:35:99074,-4.01,-9.35,-73.93,-0.02,-0.04,0.98
4:8:57:36:99186,-3.73,-8.95,-76.29,-0.03,-0.05,0.98
4:8:57:36:99595,-2.89,-7.31,-84.22,-0.03,-0.05,0.98
4:8:57:36:99674,-2.74,-6.92,-85.85,-0.03,-0.04,0.98
4:8:57:36:99787,-2.61,-6.54,-87.3,-0.03,-0.04,0.98
4:8:57:36:99882,-2.51,-6.2,-88.72,-0.03,-0.04,0.98
4:8:57:36:99994,-2.42,-5.86,-90.02,-0.03,-0.04,0.98
4:8:57:36:100074,-2.34,-5.55,-91.23,-0.03,-0.04,0.98
4:8:57:37:100186,-2.29,-5.26,-92.36,-0.03,-0.05,0.98
4:8:57:37:100595,-2.15,-4.32,-96.11,-0.03,-0.04,0.98
4:8:57:37:100691,-2.14,-4.12,-96.81,-0.03,-0.04,0.97
4:8:57:37:100787,-2.13,-3.94,-97.44,-0.03,-0.04,0.98
4:8:57:37:100883,-2.13,-3.79,-98.05,-0.03,-0.05,0.98
4:8:57:37:100979,-2.13,-3.63,-98.61,-0.03,-0.04,0.98
4:8:57:37:101091,-2.13,-3.49,-99.09,-0.03,-0.04,0.98
4:8:57:37:101171,-2.13,-3.36,-99.57,-0.03,-0.05,0.98
4:8:57:38:101606,-2.15,-2.94,-101.15,-0.03,-0.05,0.98
4:8:57:38:101687,-2.15,-2.84,-101.46,-0.03,-0.04,0.98
4:8:57:38:101782,-2.16,-2.75,-101.71,-0.03,-0.06,0.97
4:8:57:38:101879,-2.17,-2.7,-102.06,-0.03,-0.06,0.98
4:8:57:38:101990,-2.17,-2.64,-102.36,-0.03,-0.04,0.97
4:8:57:38:102086,-2.17,-2.59,-102.65,-0.03,-0.04,0.98
4:8:57:38:102166,-2.17,-2.54,-102.92,-0.03,-0.04,0.98
4:8:57:39:102606,-2.21,-2.37,-103.81,-0.03,-0.04,0.98
4:8:57:39:102733,-2.22,-2.32,-103.93,-0.03,-0.04,0.98
4:8:57:39:102797,-2.24,-2.25,-103.98,-0.03,-0.04,0.97
4:8:57:39:102877,-2.26,-2.18,-104.01,-0.03,-0.05,0.97
4:8:57:39:102989,-2.26,-2.14,-104.06,-0.03,-0.04,0.98
4:8:57:39:103085,-2.27,-2.11,-104.13,-0.04,-0.06,0.97
4:8:57:40:103182,-2.28,-2.07,-104.15,-0.03,-0.04,0.98
4:8:57:40:103600,-2.29,-2,-104.32,-0.03,-0.05,0.98
4:8:57:40:103679,-2.28,-2.01,-104.43,-0.03,-0.04,0.98
4:8:57:40:103791,-2.28,-2.02,-104.53,-0.03,-0.05,0.98
4:8:57:40:103903,-2.28,-2.02,-104.61,-0.03,-0.04,0.98
4:8:57:40:103967,-2.28,-2.02,-104.69,-0.03,-0.04,0.98
4:8:57:40:104095,-2.29,-2.01,-104.73,-0.03,-0.04,0.98
4:8:57:40:104175,-2.3,-1.98,-104.71,-0.03,-0.05,0.99
4:8:57:41:104585,-2.3,-1.94,-104.8,-0.03,-0.04,0.98
4:8:57:41:104695,-2.29,-1.93,-104.82,-0.03,-0.04,0.98
4:8:57:41:104775,-2.29,-1.94,-104.88,-0.03,-0.05,0.98
4:8:57:41:104871,-2.29,-1.94,-104.89,-0.03,-0.04,0.98
4:8:57:41:104968,-2.29,-1.93,-104.89,-0.03,-0.05,0.98
4:8:57:41:105095,-2.3,-1.91,-104.9,-0.03,-0.04,0.98
4:8:57:41:105175,-2.3,-1.93,-104.96,-0.03,-0.05,0.98
4:8:57:42:105597,-2.28,-1.97,-105.29,-0.03,-0.04,0.98
4:8:57:42:105692,-2.28,-1.98,-105.4,-0.03,-0.04,0.98
4:8:57:42:105772,-2.28,-1.98,-105.48,-0.03,-0.05,0.98
4:8:57:42:105868,-2.28,-1.99,-105.57,-0.03,-0.05,0.98
4:8:57:42:105980,-2.27,-2,-105.66,-0.03,-0.04,0.98
4:8:57:42:106075,-2.27,-2.01,-105.75,-0.03,-0.04,0.98
4:8:57:42:106172,-2.27,-2,-105.81,-0.03,-0.04,0.98
4:8:57:43:106613,-2.29,-1.99,-106.01,-0.03,-0.04,0.98
4:8:57:43:106678,-2.3,-1.97,-106.04,-0.03,-0.04,0.98
4:8:57:43:106774,-2.3,-1.96,-106.08,-0.03,-0.04,0.98
4:8:57:43:106869,-2.3,-1.96,-106.11,-0.03,-0.04,0.98
4:8:57:43:106965,-2.3,-1.95,-106.13,-0.03,-0.04,0.98
4:8:57:43:107077,-2.31,-1.94,-106.15,-0.03,-0.05,0.98
4:8:57:44:107189,-2.31,-1.94,-106.17,-0.03,-0.04,0.98
4:8:57:44:107584,-2.31,-1.93,-106.26,-0.03,-0.04,0.98
4:8:57:44:107679,-2.31,-1.89,-106.18,-0.03,-0.04,0.98
4:8:57:44:107791,-2.31,-1.9,-106.18,-0.03,-0.04,0.98
4:8:57:44:107887,-2.32,-1.9,-106.17,-0.03,-0.04,0.98
4:8:57:44:107983,-2.32,-1.9,-106.19,-0.03,-0.04,0.98
4:8:57:44:108111,-2.33,-1.88,-106.16,-0.03,-0.04,0.98
4:8:57:45:108207,-2.32,-1.88,-106.17,-0.03,-0.04,0.98
4:8:57:45:108595,-2.33,-1.87,-106.11,-0.03,-0.04,0.98
4:8:57:45:108676,-2.33,-1.86,-106.1,-0.03,-0.04,0.98
4:8:57:45:108772,-2.33,-1.86,-106.07,-0.03,-0.04,0.98
4:8:57:45:108868,-2.34,-1.85,-106.01,-0.03,-0.05,0.98
4:8:57:45:108995,-2.34,-1.83,-105.96,-0.03,-0.04,0.98
4:8:57:45:109092,-2.34,-1.82,-105.9,-0.04,-0.04,0.98
4:8:57:46:109188,-2.34,-1.81,-105.84,-0.03,-0.04,0.98
4:8:57:46:109581,-2.35,-1.81,-105.69,-0.03,-0.04,0.98
4:8:57:46:109676,-2.34,-1.8,-105.63,-0.03,-0.04,0.98
4:8:57:46:109771,-2.34,-1.83,-105.64,-0.03,-0.04,0.98
4:8:57:46:109883,-2.33,-1.85,-105.67,-0.03,-0.05,0.98
4:8:57:46:109995,-2.33,-1.85,-105.67,-0.03,-0.04,0.98
4:8:57:46:110076,-2.32,-1.85,-105.64,-0.03,-0.05,0.98
4:8:57:46:110172,-2.33,-1.83,-105.56,-0.04,-0.04,0.97
4:8:57:47:110591,-2.32,-1.8,-105.3,-0.03,-0.04,0.99
4:8:57:47:110687,-2.29,-1.84,-105.24,-0.04,-0.08,0.98
4:8:57:47:110783,-2.25,-1.85,-105.2,-0.06,-0.01,0.98
4:8:57:47:110879,-2.24,-1.84,-105.14,-0.05,-0.03,0.99
4:8:57:47:110975,-2.26,-1.78,-105.1,-0.07,0.02,1.02
4:8:57:47:111071,-2.25,-1.75,-105.07,-0.08,-0.01,0.92
4:8:57:48:111198,-2.25,-1.7,-105.03,-0.04,-0.05,0.92
4:8:57:48:111610,-2.35,-1.58,-104.92,-0.04,0,1.02
4:8:57:48:111673,-2.32,-1.61,-104.87,0,-0.08,0.89
4:8:57:48:111769,-2.31,-1.66,-104.87,0.02,-0.05,1.01
4:8:57:48:111865,-2.27,-1.72,-104.87,-0.06,-0.06,0.99
4:8:57:48:111976,-2.23,-1.79,-104.91,-0.04,0,1.06
4:8:57:48:112073,-2.19,-1.82,-104.9,0,-0.06,0.92
4:8:57:48:112169,-2.2,-1.83,-104.86,-0.02,-0.05,1.01
4:8:57:49:112591,-2.2,-1.83,-105.03,-0.05,-0.07,0.97
4:8:57:49:112685,-2.17,-1.83,-105.08,0.02,-0.09,1.01
4:8:57:49:112782,-2.14,-1.86,-105.14,-0.05,-0.03,0.97
4:8:57:49:112877,-2,-1.74,-105.22,-0.06,-0.06,0.99
4:8:57:49:112974,-1.49,-1.29,-105.24,-0.01,-0.06,0.97
4:8:57:49:113070,-1.12,-0.99,-105.29,0.01,-0.06,1.01
4:8:57:49:113165,-0.98,-0.91,-105.28,-0.09,-0.01,0.92
4:8:57:50:113595,-1.18,-1.12,-105.48,-0.05,-0.02,0.91
4:8:57:50:113675,-0.74,-0.61,-105.38,0.03,0,1.01
4:8:57:50:113771,-1,-0.91,-105.39,-0.02,-0.08,1
4:8:57:50:113883,-0.66,-0.69,-105.38,-0.03,0.09,0.98
4:8:57:50:113963,-0.04,-0.45,-105.35,-0.01,-0.03,0.97
4:8:57:50:114075,0.98,0.34,-105.41,0.03,-0.01,0.94
4:8:57:50:114171,1.69,1,-105.74,0.05,0,0.94
4:8:57:51:114605,2.65,1.78,-105.86,0.01,0.04,0.94
4:8:57:51:114683,2.71,1.68,-105.69,0.12,0.01,0.98
4:8:57:51:114779,3.95,0.6,-105.94,-0.03,0.12,0.99
4:8:57:51:114875,5.21,-0.86,-107.18,0.07,0.05,1.08
4:8:57:51:114987,4.99,-0.14,-108.23,-0.04,0.01,1.05
4:8:57:51:115083,3.44,1.16,-108.91,-0.02,0.06,1.02
4:8:57:51:115178,2.44,1.51,-108.46,-0.04,0.11,1.03
4:8:57:52:115607,3.03,-1.29,-108.27,0.01,0.07,0.96
4:8:57:52:115670,2.68,-0.46,-107.69,-0.08,-0.04,0.97
4:8:57:52:115766,1.25,-0.34,-106.97,-0.04,0,0.97
4:8:57:52:115894,0.76,-0.34,-106.23,0,0.05,0.92
4:8:57:52:115990,1.03,-0.29,-105.61,-0.01,0.01,0.97
4:8:57:52:116086,1.21,-0.29,-104.73,-0.03,0.01,0.97
4:8:57:53:116199,0.77,-0.55,-104.27,0.02,0.04,0.92
4:8:57:53:116596,-0.23,-0.05,-103.53,0.11,-0.08,1.01
4:8:57:53:116691,-0.49,0.03,-103.67,0.1,-0.08,0.86
4:8:57:53:116786,-0.79,0.09,-103.87,-0.15,-0.01,1.02
4:8:57:53:116883,-0.83,-0.03,-103.96,0.04,0.01,0.91
4:8:57:53:116979,-1.2,0.03,-104.06,0.02,0.02,0.99
4:8:57:53:117075,-0.84,0.27,-104.07,-0.02,-0.2,0.98
4:8:57:54:117187,-0.91,0.22,-104.09,0.11,0.14,0.99
4:8:57:54:117587,-1.41,1.17,-104.67,0.05,-0.07,0.86
4:8:57:54:117681,-1.43,1.46,-104.74,0.06,0.06,1.11
4:8:57:54:117777,-1.59,1.49,-104.58,-0.04,0.25,0.99
4:8:57:54:117873,-1.63,1.42,-104.74,0.04,0,1.11
4:8:57:54:117969,-1.37,1.68,-105.05,-0.06,0.18,1.1
4:8:57:54:118097,-0.84,1.44,-105.59,-0.07,0,1.23
4:8:57:54:118177,0.08,0.88,-106.13,0.02,-0.04,1.06
4:8:57:55:118685,2.75,-2.55,-107.49,-0.1,-0.2,1.37
4:8:57:55:118797,2.73,-2.79,-107.45,0.07,-0.03,1.36
4:8:57:55:118877,2.55,-2.89,-107.43,-0.11,0.23,1.25
4:8:57:55:118973,2.29,-2.98,-107.36,-0.09,0.07,1.26
4:8:57:55:119069,2.04,-2.93,-107.35,-0.08,-0.02,1.24
4:8:57:55:119165,1.96,-3.02,-107.39,-0.1,0.13,1.17
4:8:57:56:119669,1.74,-2.83,-107.91,-0.02,0.08,0.89
4:8:57:56:119781,1.53,-2.74,-107.81,0.08,-0.04,0.89
4:8:57:56:119861,1.32,-2.65,-107.74,0.06,-0.05,0.88
4:8:57:56:119988,1.2,-2.55,-107.66,-0.04,-0.09,1.13
4:8:57:56:120084,1.33,-2.51,-107.69,-0.02,0.12,1.04
4:8:57:57:120180,1.78,-2.63,-107.88,-0.1,0.02,1.04
4:8:57:57:120671,0.83,-2.04,-108.09,-0.09,0,1.08
4:8:57:57:120767,0.94,-2.31,-107.94,-0.12,0.15,1.03
4:8:57:57:120895,0.97,-2.56,-107.92,-0.14,0.15,0.89
4:8:57:57:120991,1.02,-2.75,-107.83,-0.04,-0.04,0.99
4:8:57:57:121087,1.19,-2.97,-107.76,-0.07,0.07,0.98
4:8:57:58:121199,1.21,-2.93,-107.81,-0.22,0.21,1.04
4:8:57:58:121681,1.62,-2.95,-108.83,-0.14,0.27,0.96
4:8:57:58:121777,1.19,-2.77,-108.92,-0.15,0.37,0.99
4:8:57:58:121873,1.09,-2.75,-108.84,-0.12,0.23,1
4:8:57:58:121969,0.88,-2.66,-108.69,-0.08,0.22,0.95
4:8:57:58:122081,0.95,-2.6,-108.47,-0.09,0.22,0.99
4:8:57:58:122177,1.13,-2.47,-108.25,0,0.17,1.1
4:8:57:59:122684,3.03,1.13,-107.34,-0.15,0.1,0.9
4:8:57:59:122764,5.14,2.69,-107.11,-0.16,0.26,0.95
4:8:57:59:122877,6.07,3.66,-106.84,-0.18,0.12,0.86
4:8:57:59:122972,6.4,3.49,-106.68,-0.12,-0.14,0.93
4:8:57:59:123085,5.85,2.55,-106.63,0.05,-0.19,0.85
4:8:58:0:123180,4.73,1.53,-106.65,-0.11,-0.03,0.96
4:8:58:0:123686,1.14,-1.6,-106.27,0,-0.05,0.88
4:8:58:0:123782,0.45,-2,-106.13,0.01,0.15,1.01
4:8:58:0:123878,0.67,-2.25,-105.94,-0.12,0.35,0.96
4:8:58:0:123975,1.15,-2.44,-105.79,0.02,-0.14,1.12
4:8:58:0:124086,1.15,-2.46,-105.72,-0.04,0.14,1.07
4:8:58:0:124166,1.17,-2.04,-105.81,0.11,-0.22,0.96
4:8:58:1:124677,1.94,-1.54,-105.97,-0.03,-0.15,0.93
4:8:58:1:124772,2.12,-1.55,-106.04,0.04,-0.25,0.89
4:8:58:1:124869,2.34,-1.53,-106.06,-0.02,0.18,0.97
4:8:58:1:125012,2.46,-1.62,-106.07,-0.04,-0.16,0.93
4:8:58:1:125109,2.72,-1.55,-106.16,0.02,-0.1,0.81
4:8:58:2:125188,3.22,-1.44,-106.37,-0.12,0.35,0.95
4:8:58:2:125677,0.97,-4.57,-106.29,0.06,-0.05,1.07
4:8:58:2:125772,-1.65,-6.35,-106.1,0.11,-0.29,1.04
4:8:58:2:125884,-2.83,-7.06,-106.09,-0.03,-0.02,1.23
4:8:58:2:125980,-3.55,-7.19,-106.24,0.06,0.1,1.12
4:8:58:2:126076,-3.65,-7.31,-106.33,-0.04,0.21,1.1
4:8:58:2:126172,-3.24,-6.9,-106.34,-0.1,0.36,0.96
4:8:58:3:126681,2.05,-5.14,-106.42,0,0.26,1.01
4:8:58:3:126777,2.91,-5.22,-106.43,-0.03,0.24,0.99
4:8:58:3:126873,3.07,-5.04,-106.42,0.03,-0.11,1.04
4:8:58:3:126985,2.74,-4.68,-106.48,0.03,-0.36,1.03
4:8:58:3:127081,1.78,-4.28,-106.47,-0.08,-0.01,0.99
4:8:58:3:127177,1.23,-4.27,-106.46,-0.16,0.2,1.17
4:8:58:4:127680,0.43,-3.61,-106.46,-0.06,-0.29,1.09
4:8:58:4:127776,0.28,-3.39,-106.6,-0.09,-0.29,0.97
4:8:58:4:127872,0.42,-3.56,-106.78,-0.1,0.04,1
4:8:58:4:127968,1.16,-3.99,-106.83,-0.15,0.15,0.98
4:8:58:4:128064,1.86,-4.37,-106.86,-0.11,0.31,0.89
4:8:58:4:128175,1.74,-4.43,-106.99,-0.05,-0.01,0.91
4:8:58:5:128700,2.44,-4.63,-107.03,0.01,-0.31,0.88
4:8:58:5:128812,2.27,-4.59,-107.08,-0.04,-0.18,0.85
4:8:58:5:128892,2.24,-4.57,-107.18,-0.03,0.11,0.86
4:8:58:5:128988,2.45,-4.83,-107.23,-0.01,0.2,1.08
4:8:58:5:129084,2.67,-5.09,-107.35,0,-0.05,1.09
4:8:58:6:129180,3.14,-5.25,-107.44,0.03,-0.27,0.91
4:8:58:6:129672,2.32,-4.94,-107.31,0.07,-0.5,1.03
4:8:58:6:129768,2.41,-4.73,-107.41,-0.08,-0.08,0.91
4:8:58:6:129912,2.03,-4.48,-107.53,-0.05,0.22,1
4:8:58:6:129976,2.06,-4.56,-107.65,-0.03,0.02,1.15
4:8:58:6:130135,2.12,-4.72,-107.77,0.03,-0.39,0.97
4:8:58:6:130167,2.42,-4.88,-107.84,-0.09,-0.17,0.91
4:8:58:7:130706,2.57,-5.36,-108.03,-0.12,0.04,1.08
4:8:58:7:130785,2.53,-5.39,-108.06,-0.05,-0.26,1.12
4:8:58:7:130929,2.61,-5.4,-108.09,-0.15,0.11,0.82
4:8:58:7:130993,2.8,-5.37,-108.12,-0.15,0.38,0.79
4:8:58:7:131105,2.64,-5.38,-108.11,0.03,-0.13,0.99
4:8:58:7:131169,2.43,-5.29,-108.13,-0.05,-0.22,0.98
4:8:58:8:131591,2.36,-4.98,-108.52,-0.12,0.36,0.88
4:8:58:8:131685,2.83,-5.07,-108.7,0.07,-0.25,1.04
4:8:58:8:131781,2.77,-5.22,-108.8,-0.13,-0.31,0.92
4:8:58:8:131877,2.36,-5.19,-108.85,-0.31,0.35,0.99
4:8:58:8:131988,2.02,-5.17,-108.95,-0.02,-0.12,1.01
4:8:58:8:132068,1.74,-5.26,-109.09,-0.05,0.07,1.01
4:8:58:9:132197,1.59,-5.32,-109.24,-0.3,0.37,1.03
4:8:58:9:132587,1.2,-5.67,-109.57,0.04,-0.23,1.11
4:8:58:9:132666,1.28,-5.5,-109.51,-0.31,0.18,1
4:8:58:9:132793,1.28,-5.28,-109.51,-0.16,0.26,1.13
4:8:58:9:132889,1.07,-5.23,-109.49,-0.05,-0.12,0.85
4:8:58:9:132985,1.17,-5.18,-109.55,-0.12,0.07,1.07
4:8:58:9:133065,1.06,-4.94,-109.57,-0.06,0.06,1.03
4:8:58:10:133209,1.1,-4.81,-109.75,-0.1,0.05,1
4:8:58:10:133690,0.5,-4.74,-109.33,-0.12,0.37,0.8
4:8:58:10:133770,0.31,-4.56,-109.28,-0.12,-0.24,0.91
4:8:58:10:133866,0.05,-4.52,-109.21,0.01,-0.16,0.97
4:8:58:10:133978,0.29,-4.6,-109.18,-0.07,0.21,0.96
4:8:58:10:134074,0.51,-4.61,-109.16,0.02,-0.1,0.86
4:8:58:11:134218,0.61,-4.44,-109.13,-0.17,0,0.91
4:8:58:11:134707,0.37,-4.75,-108.84,-0.11,0.35,0.92
4:8:58:11:134803,0.4,-4.61,-108.82,-0.03,-0.18,1.06
4:8:58:11:134883,0.7,-4.56,-108.82,-0.01,0,0.98
4:8:58:11:134963,0.97,-4.48,-108.79,-0.09,0.12,1.02
4:8:58:11:135107,0.85,-4.29,-108.7,-0.07,-0.11,0.96
4:8:58:12:135187,0.52,-4.1,-108.64,-0.13,0.3,0.97
4:8:58:12:135693,1.15,-5.04,-108.56,-0.06,-0.07,0.94
4:8:58:12:135789,1.17,-5.2,-108.56,-0.12,0.33,1.08
4:8:58:12:135869,0.91,-5.24,-108.51,0.03,-0.37,0.98
4:8:58:12:135964,1.01,-5.03,-108.52,-0.15,0.29,0.77
4:8:58:12:136076,1.04,-5,-108.49,-0.16,-0.04,0.98
4:8:58:12:136173,1.28,-4.94,-108.44,-0.02,-0.14,1.05
4:8:58:13:136679,1.84,-3.72,-108.28,-0.14,0.44,0.93
4:8:58:13:136775,2.17,-3.63,-108.27,-0.1,-0.13,1.14
4:8:58:13:136871,2.5,-3.61,-108.25,-0.09,0.08,1
4:8:58:13:137000,2.1,-3.39,-108.03,-0.05,0.18,0.96
4:8:58:13:137079,2.36,-3.32,-107.86,-0.06,-0.01,1
4:8:58:14:137191,2.58,-3.46,-107.87,-0.21,-0.04,1.02
4:8:58:14:137704,2.56,-4.27,-108.16,-0.08,-0.09,0.86
4:8:58:14:137832,2.72,-4.37,-108.19,-0.14,-0.18,1.04
4:8:58:14:137880,3.07,-4.43,-108.17,-0.07,0.28,0.99
4:8:58:14:137976,3.12,-4.34,-108.12,-0.04,-0.2,0.92
4:8:58:14:138072,2.75,-4.23,-108.03,0.01,-0.31,0.92
4:8:58:15:138216,2.69,-4.15,-107.97,-0.14,0.47,0.94
4:8:58:15:138614,2.07,-3.74,-107.96,-0.04,-0.16,1.16
4:8:58:15:138692,2.08,-3.78,-107.91,-0.03,-0.03,0.91
4:8:58:15:138804,1.84,-3.78,-107.91,-0.1,0.4,0.99
4:8:58:15:138917,1.99,-3.99,-107.9,-0.1,-0.26,1.01
4:8:58:15:139028,2.2,-4.06,-107.93,0,-0.07,0.75
4:8:58:15:139092,2.18,-4.06,-107.89,-0.18,0.14,1.06
4:8:58:16:139268,1.98,-3.96,-107.85,0,0.13,0.96
4:8:58:16:139711,2.19,-3.96,-108.11,-0.11,-0.03,0.89
4:8:58:16:139727,1.78,-4.1,-108.07,-0.11,0.27,0.9
4:8:58:16:139775,2.32,-4.67,-108.12,0.03,-0.45,1.11
4:8:58:16:139903,2.9,-4.79,-108.14,-0.16,0.28,0.75
4:8:58:16:139968,3.32,-4.82,-108.14,0.03,-0.05,1.01
4:8:58:16:140095,3.19,-4.81,-108.08,-0.12,-0.17,1.12
4:8:58:17:140191,2.98,-4.86,-108.02,-0.11,0.18,1.14
4:8:58:17:140584,2.52,-4.77,-107.81,0.03,-0.2,1.07
4:8:58:17:140677,2.29,-4.47,-107.78,0.02,-0.22,0.84
4:8:58:17:140805,2.01,-4.23,-107.78,0.01,-0.15,0.98
4:8:58:17:140885,1.63,-4.14,-107.75,-0.03,-0.16,0.89
4:8:58:17:140998,1.28,-4.09,-107.71,-0.12,0.18,0.99
4:8:58:17:141078,0.98,-4.14,-107.69,-0.11,0.34,1.07
4:8:58:18:141205,0.84,-4.12,-107.68,-0.03,0.35,0.93
4:8:58:18:141603,2.17,-3.84,-107.72,-0.08,0.11,1.09
4:8:58:18:141727,2.12,-3.63,-107.78,0.01,-0.07,0.93
4:8:58:18:141776,1.84,-3.4,-107.91,0.03,-0.22,0.96
4:8:58:18:141871,1.69,-3.27,-108.02,-0.09,-0.06,0.88
4:8:58:18:141968,1.33,-3.16,-108.14,-0.17,0.38,1.08
4:8:58:18:142079,0.9,-3.23,-108.27,-0.05,-0.12,0.99
4:8:58:19:142223,0.69,-3.38,-108.31,-0.18,-0.14,0.98
4:8:58:19:142647,2.23,-4.52,-108.45,-0.16,0.4,0.81
4:8:58:19:142886,2.2,-4.72,-108.38,-0.12,0.12,1.06
4:8:58:19:142966,2.31,-4.69,-108.28,0.02,-0.29,0.89
4:8:58:19:142998,2.66,-4.59,-108.22,-0.06,0.11,1
4:8:58:19:143029,2.8,-4.52,-108.13,-0.19,0.18,1.02
4:8:58:19:143078,2.78,-4.27,-108.07,0.06,-0.21,0.94
4:8:58:20:143190,2.67,-3.99,-107.94,-0.04,0.11,0.87
4:8:58:20:143609,2.62,-3.54,-108.13,0.03,-0.31,1.07
4:8:58:20:143702,2.9,-3.33,-108.08,-0.19,0.27,0.77
4:8:58:20:143846,3.17,-3.45,-108.09,-0.03,0.31,1.05
4:8:58:20:143880,3.21,-3.61,-108.09,0.03,-0.23,1.05
4:8:58:20:144005,3.22,-3.54,-108.08,-0.07,-0.08,0.93
4:8:58:20:144102,3.29,-3.45,-108.06,0.05,-0.13,0.94
4:8:58:21:144245,3.07,-3.2,-107.91,-0.12,0.04,0.88
4:8:58:21:144627,2.75,-3.21,-108.19,-0.1,-0.02,0.91
4:8:58:21:144690,3,-3.27,-108.19,-0.03,0.33,0.96
4:8:58:21:144834,3.09,-3.24,-108.21,-0.12,0.14,0.96
4:8:58:21:144883,2.86,-3.18,-108.23,0.01,-0.28,1.12
4:8:58:21:144978,2.8,-3.15,-108.19,-0.01,-0.05,0.85
4:8:58:21:145074,2.56,-3.01,-108.18,-0.11,-0.08,1.04
4:8:58:22:145250,2.58,-2.89,-108.18,-0.1,0.41,0.93
4:8:58:22:145603,3.14,-2.88,-108.08,0.05,0.23,0.97
4:8:58:22:145666,3.31,-2.96,-108.03,-0.08,0.19,0.98
4:8:58:22:145794,3.46,-3.03,-108.01,0.05,-0.17,1.08
4:8:58:22:145890,3.48,-2.84,-107.95,-0.06,-0.05,0.82
4:8:58:22:146019,3.47,-2.79,-107.86,0.03,-0.03,0.96
4:8:58:22:146081,3.45,-2.85,-107.89,-0.07,0.13,1.07
4:8:58:23:146209,3.08,-2.82,-107.9,-0.08,0.02,1.1
4:8:58:23:146582,2.02,-2.8,-108.14,-0.1,0.36,0.95
4:8:58:23:146678,2.03,-2.8,-108.05,0.06,-0.3,1.06
4:8:58:23:146805,2.21,-2.91,-108.15,-0.04,-0.11,0.94
4:8:58:23:146934,2.38,-2.8,-108.18,0,-0.01,0.94
4:8:58:23:146997,2.44,-2.63,-108.13,-0.18,0.18,0.96
4:8:58:23:147078,2.38,-2.46,-108.05,-0.06,0.22,1.03
4:8:58:23:147174,2.1,-2.22,-107.92,0.15,-0.3,0.8
4:8:58:24:147601,1.81,-2.04,-107.78,-0.06,0.3,0.89
4:8:58:24:147695,1.82,-2.17,-107.81,-0.05,0.15,1.02
4:8:58:24:147855,1.81,-2.33,-107.81,0.01,-0.32,1.13
4:8:58:24:147871,2.08,-2.46,-107.88,-0.07,-0.11,0.85
4:8:58:24:147999,2.2,-2.52,-107.87,-0.02,-0.04,0.92
4:8:58:24:148079,2.26,-2.77,-107.86,-0.1,0.24,1
4:8:58:24:148175,2.12,-2.82,-107.79,-0.01,0.38,0.96
4:8:58:25:148615,2.72,-2.72,-107.31,-0.02,-0.03,0.93
4:8:58:25:148710,2.6,-2.89,-107.35,0.08,-0.22,1.02
4:8:58:25:148806,3.06,-3.2,-107.38,-0.14,-0.28,0.95
4:8:58:25:148886,3.29,-3.43,-107.39,-0.02,-0.06,1.02
4:8:58:25:149013,3.28,-3.62,-107.37,0,-0.08,0.79
4:8:58:25:149077,3.2,-3.68,-107.41,-0.06,0.03,0.95
4:8:58:26:149269,2.84,-3.59,-107.46,-0.18,0.35,1.07
4:8:58:26:149619,3.75,-3.45,-107.67,-0.1,0.34,0.84
4:8:58:26:149684,3.89,-3.54,-107.79,-0.05,0.13,1.01
4:8:58:26:149780,3.82,-3.43,-107.92,-0.2,0.43,1.03
4:8:58:26:149891,3.67,-3.37,-108.01,0.04,0.28,0.93
4:8:58:26:150003,3.72,-3.25,-108.06,-0.09,0.05,0.91
4:8:58:26:150099,3.57,-3.17,-108.11,-0.09,0.26,1.03
4:8:58:26:150163,3.49,-3.19,-108.14,0.03,0.08,1.04
4:8:58:27:150658,3.92,-3.11,-108.3,-0.05,0.12,0.94
4:8:58:27:150673,3.98,-3.09,-108.26,0.06,0.03,1.04
4:8:58:27:150817,4.24,-3.05,-108.3,0.03,-0.31,1.03
4:8:58:27:150896,4.19,-2.91,-108.36,-0.07,-0.08,1.01
4:8:58:27:151105,3.84,-2.78,-108.42,0.09,-0.23,0.98
4:8:58:27:151137,3.51,-2.79,-108.37,-0.02,-0.19,0.97
4:8:58:28:151200,3.59,-2.82,-108.33,-0.03,-0.12,0.97
4:8:58:28:151591,3.47,-2.64,-108.16,-0.24,0,1.01
4:8:58:28:151703,3.49,-2.62,-108.12,0,-0.16,0.92
4:8:58:28:151783,3.6,-2.5,-108.13,0.07,-0.24,0.96
4:8:58:28:151927,3.95,-2.46,-108.22,-0.05,-0.2,1.04
4:8:58:28:151991,4.2,-2.45,-108.23,-0.1,0.25,0.76
4:8:58:29:152199,4.14,-2.36,-108.23,-0.11,0.44,0.95
4:8:58:29:152215,3.94,-2.43,-108.22,0.04,0.09,0.98
4:8:58:29:152739,3.5,-2.37,-108.1,-0.1,0.26,1.08
4:8:58:29:152739,3.21,-2.29,-108.07,0.05,0.05,0.95
4:8:58:29:152802,3.38,-2.45,-108.03,-0.01,0.14,1.07
4:8:58:29:152914,3.37,-2.49,-108.06,-0.17,0.29,1.01
4:8:58:29:153120,3.32,-2.43,-108.1,-0.06,0.12,0.95
4:8:58:29:153120,3.19,-2.58,-108.09,0.07,-0.03,1.06
4:8:58:29:153169,3.22,-2.81,-108.16,-0.13,-0.25,1.04
4:8:58:30:153633,2.62,-2.87,-108.3,-0.09,0.3,1.04
4:8:58:30:153680,2.56,-3.01,-108.37,-0.09,0.21,1
4:8:58:30:153777,2.48,-2.97,-108.32,-0.14,0.41,1.11
4:8:58:30:153888,2.52,-3.2,-108.17,0.05,-0.04,0.95
4:8:58:30:154001,3.03,-3.16,-108.16,-0.1,-0.17,1.17
4:8:58:30:154081,3.32,-3.2,-108.16,-0.03,-0.19,0.85
4:8:58:30:154176,3.48,-3.05,-108.24,-0.06,0,0.91
4:8:58:31:154723,2.86,-2.96,-108.18,0.01,-0.09,1.02
4:8:58:31:154835,2.79,-2.86,-108.18,-0.2,0.29,0.9
4:8:58:31:154883,3.15,-2.82,-108.17,-0.11,0.47,0.85
4:8:58:31:155107,3.37,-2.78,-108.13,0.03,0.06,0.95
4:8:58:31:155123,3.39,-2.67,-108.15,-0.14,0.34,1.02
4:8:58:31:155171,3.24,-2.66,-108.18,0.08,0.08,1.02
4:8:58:32:155764,4.16,-2.76,-108.36,-0.13,0.36,0.86
4:8:58:32:155796,3.93,-2.56,-108.27,-0.1,0.27,0.92
4:8:58:32:155876,3.95,-2.61,-108.13,-0.12,0.19,0.91
4:8:58:32:156036,3.93,-2.86,-108,-0.2,0.18,0.84
4:8:58:32:156084,4,-3.06,-107.82,-0.1,0.14,0.87
4:8:58:33:156259,4.11,-3.12,-107.73,-0.09,0.02,0.75
4:8:58:33:156726,4.07,-3.37,-107.58,-0.22,0.28,0.69
4:8:58:33:156821,3.93,-3.51,-107.58,-0.01,-0.08,0.73
4:8:58:33:156950,3.92,-3.58,-107.55,-0.08,0.09,0.74
4:8:58:33:157011,4.07,-3.52,-107.52,0.07,-0.1,0.62
4:8:58:33:157012,4.2,-3.36,-107.52,-0.06,-0.01,0.65
4:8:58:33:157123,4.3,-3.4,-107.58,-0.2,0.08,0.86
4:8:58:34:157187,4.38,-3.65,-107.66,-0.12,-0.14,0.75
4:8:58:34:157760,4.73,-4.73,-108.42,-0.23,0.3,0.94
4:8:58:34:157792,4.7,-4.7,-108.43,-0.1,0.1,0.92
4:8:58:34:157936,4.51,-4.67,-108.53,0.13,-0.07,1.1
4:8:58:34:157968,4.3,-4.51,-108.65,0.09,0.03,1
4:8:58:34:158144,4,-4.42,-108.69,-0.07,-0.03,1.04
4:8:58:35:158192,3.79,-4.3,-108.69,-0.1,-0.04,1.07
4:8:58:35:158740,3.13,-4.1,-108.67,0.05,-0.2,0.92
4:8:58:35:158772,3.02,-4.01,-108.61,-0.15,-0.09,0.84
4:8:58:35:158915,3.08,-3.96,-108.59,0.05,-0.17,0.84
4:8:58:35:158980,3.1,-3.78,-108.6,-0.05,0.01,0.93
4:8:58:35:159108,2.91,-3.63,-108.61,-0.12,-0.01,0.93
4:8:58:36:159315,2.84,-3.56,-108.6,0.07,-0.1,0.85
4:8:58:36:159695,2.95,-3.59,-108.31,-0.11,0.08,1.01
4:8:58:36:159806,2.76,-3.43,-108.27,-0.11,0.27,0.98
4:8:58:36:159935,2.67,-3.38,-108.25,0,0.33,0.96
4:8:58:36:160083,2.73,-3.21,-108.22,-0.07,-0.17,0.8
4:8:58:36:160084,2.76,-2.99,-108.18,0.05,-0.21,0.96
4:8:58:37:160227,2.73,-2.94,-108.16,0.12,-0.13,0.98
4:8:58:37:160682,2.98,-2.81,-108.58,-0.07,-0.09,0.88
4:8:58:37:160826,3.12,-2.84,-108.54,-0.1,0.35,0.94
4:8:58:37:160890,3.06,-2.75,-108.59,-0.04,0.15,0.86
4:8:58:37:160986,3.05,-2.76,-108.61,0.03,0.18,1.02
4:8:58:37:161145,3.11,-2.66,-108.57,-0.02,0.03,1.03
4:8:58:38:161210,3.18,-2.6,-108.49,-0.25,0.09,1
4:8:58:38:161677,3.01,-2.6,-108.2,-0.11,0.1,0.86
4:8:58:38:161802,2.97,-2.74,-108.22,0.12,-0.01,0.91
4:8:58:38:161930,2.84,-2.81,-108.26,0.01,0.05,0.86
4:8:58:38:162043,2.61,-2.82,-108.2,0,-0.17,0.95
4:8:58:38:162122,2.59,-2.69,-108.18,-0.1,0.06,1.03
4:8:58:39:162250,2.63,-2.64,-108.22,-0.19,-0.01,1.02
4:8:58:39:162664,2.53,-2.38,-108.06,-0.18,0.16,1.14
4:8:58:39:162839,2.39,-2.51,-108.07,0.08,-0.13,1.19
4:8:58:39:162936,2.48,-2.62,-108.16,-0.21,0.2,1.06
4:8:58:39:162999,2.31,-2.53,-108.21,0.03,0.03,1.03
4:8:58:39:163111,2.3,-2.54,-108.21,-0.08,0,1.19
4:8:58:40:163255,2.43,-2.59,-108.13,-0.1,0.14,1.1
4:8:58:40:163903,2.37,-2.46,-107.42,0,0.25,1.21
4:8:58:40:163935,2.35,-2.52,-107.42,0.03,0.14,1.29
4:8:58:40:163951,2.28,-2.56,-107.39,-0.02,0.24,1.05
4:8:58:40:163999,2.37,-2.71,-107.43,-0.12,0.17,1.06
4:8:58:40:164095,2.38,-2.72,-107.48,-0.16,0.29,1.03
4:8:58:41:164303,2.66,-2.89,-107.54,-0.03,0.2,1.06
4:8:58:42:165715,2.67,-1.88,-107.21,-0.03,0.07,1.16
4:8:58:42:165827,2.57,-1.76,-107.11,-0.13,0.08,1.13
4:8:58:42:166099,2.93,-1.57,-107.03,0.06,-0.23,1.09
4:8:58:43:166259,3.17,-1.54,-107.02,-0.07,0.23,1.04
4:8:58:43:166329,3.58,-1.59,-107.07,-0.05,0.4,1.06
4:8:58:43:166330,3.85,-1.52,-107.09,0.01,0.14,0.96
4:8:58:44:167756,4.48,-1.61,-107.36,-0.03,0.06,0.92
4:8:58:44:167947,4.95,-1.59,-107.24,-0.11,0.15,0.9
4:8:58:44:168124,5.24,-1.66,-107,0,0.09,0.74
4:8:58:45:168269,5.4,-1.86,-106.76,0.1,-0.22,0.74
4:8:58:45:168604,5.49,-2.17,-106.56,-0.14,0.24,0.9
4:8:58:45:168620,5.33,-2.52,-106.45,-0.07,0.2,0.59
4:8:58:45:168930,5.56,-4.12,-106.87,-0.08,0.12,0.72
4:8:58:45:168931,5.56,-4.18,-106.91,0.05,0.17,0.63
4:8:58:45:168961,5.49,-4.29,-107.02,-0.03,-0.3,0.58
4:8:58:45:168993,5.41,-4.36,-107.06,-0.1,0.15,0.79
4:8:58:45:169169,5.37,-4.31,-107.09,0.13,-0.01,0.63
4:8:58:46:169185,5.35,-4.28,-107.13,-0.09,0.06,0.66
4:8:58:46:169748,5.32,-4.61,-108.17,-0.07,0.24,1
4:8:58:46:169892,5.23,-4.39,-108.3,-0.03,0.13,1.09
4:8:58:46:170020,5.08,-4.28,-108.3,0.09,0.02,1.06
4:8:58:46:170035,4.86,-4.09,-108.27,-0.06,-0.08,0.98
4:8:58:46:170100,4.7,-3.94,-108.28,-0.18,-0.03,1
4:8:58:47:170180,4.44,-3.89,-108.23,-0.04,-0.22,0.99
4:8:58:47:170806,4.25,-3.99,-108.44,-0.1,0.08,1.04
4:8:58:47:170870,3.96,-3.75,-108.37,-0.08,0.09,1.01
4:8:58:47:170902,3.81,-3.52,-108.46,-0.02,-0.01,0.93
4:8:58:47:171030,3.78,-3.42,-108.5,-0.36,0.12,0.32
4:8:58:47:171094,8.64,-7.52,-110.05,-0.51,0.06,0.65
4:8:58:48:171302,-13.01,11.64,-103.86,1.19,-3.03,-5.89
4:8:58:49:172833,-19.46,25.01,26.45,-0.1,-0.02,0.06
4:8:58:49:172849,-6.71,27.72,46.69,-0.12,0.05,-0.03
4:8:58:49:172913,8.09,38.52,66.67,-0.11,0.07,-0.16
4:8:58:49:172946,17.14,58.47,90.88,0,0.03,-0.01
4:8:58:49:173057,53.87,69.89,140.22,0.02,0.02,0
4:8:58:49:173074,95.39,64.21,-168.91,0.07,0.03,-0.03
4:8:58:49:173150,28.21,12.19,-173.29,0.03,-0.07,0.14
4:8:58:49:173151,-4.05,-11.89,-172.16,-0.03,-0.26,0.3
4:8:58:49:173151,-30.44,-25.4,-153.27,-0.1,-0.29,0.41
4:8:58:49:173151,-34.86,-18.47,-129.79,0.02,-0.35,0.35
4:8:58:49:173152,-15.4,-12.67,-101.87,0,-0.13,0.44
4:8:58:50:173213,8.45,-20.23,-78.07,-0.19,0.1,0.55
4:8:58:50:173693,9.22,11.3,98.61,-0.21,0.75,4.72
4:8:58:50:173790,29.13,31.59,116.82,0.15,0.13,2.17
4:8:58:50:173917,59.03,36.69,141.86,0.04,0.49,1.35
4:8:58:50:173981,69.61,40.88,163.86,0.22,0.14,0.9
4:8:58:50:174077,79.66,26.29,174.99,0.12,0.17,0.84
4:8:58:51:174204,78.99,7.62,-172.91,0.09,0.33,0.94
4:8:58:51:174681,39.95,-3.43,-72.31,0.28,0.3,1.43
4:8:58:51:174793,38.34,1.67,-62.13,0.26,0.3,1.33
4:8:58:51:174873,37.09,8.48,-56.22,0.27,0.29,1.28
4:8:58:51:174985,34.73,12.86,-54.67,0.22,0.17,0.94
4:8:58:51:175081,31.14,10.85,-57,0.19,0.24,1.01
4:8:58:52:175192,27.33,9.48,-62.05,0.19,0.2,0.95
4:8:58:52:175682,26.62,-17.8,-107.01,0.11,0.21,0.97
4:8:58:52:175810,26.28,-14.41,-120.1,0.12,0.15,0.92
4:8:58:52:175874,30.59,-13.99,-133.58,0.13,0.15,0.93
4:8:58:52:176051,34.62,-9.25,-144.13,0.11,0.17,0.91
4:8:58:53:176210,37.21,-2.55,-152.83,0.1,0.15,0.79
4:8:58:53:176274,36.98,4.04,-160.09,0.12,0.15,0.81
4:8:58:53:176834,26.49,19.86,-158.9,0.34,0.21,0.86
4:8:58:54:177266,16.57,9.76,-152.89,0.1,0.31,0.93
4:8:58:54:177282,3.99,18.85,-154.26,0.17,0.13,0.75
4:8:58:54:177298,6.07,28.12,-145.91,0.25,0.12,0.86
4:8:58:54:177378,20.19,24.2,-127.69,0.2,0.43,0.8
4:8:58:54:177405,14.34,20.8,-119.42,0.33,0.23,1
4:8:58:54:177728,-1.74,-2.27,-72.07,0.2,0.23,0.79
4:8:58:54:177793,-3.22,-2.04,-68.92,0.17,0.23,0.73
4:8:58:54:177937,-3.73,-1.95,-67.17,0.17,0.24,0.73
4:8:58:54:177968,-1.03,1.61,-68.16,0.21,0.3,0.95
4:8:58:55:178288,4.2,9.08,-70.85,0.28,0.26,0.98
4:8:58:55:178304,10.65,11.38,-70.64,0.28,0.35,0.97
4:8:58:55:178944,14.77,5.13,-89.03,0.34,0.39,0.99
4:8:58:55:178976,9.4,1.38,-98.45,0.32,0.38,1.03
4:8:58:55:179008,7.23,-2.51,-108.47,0.31,0.31,0.94
4:8:58:55:179078,10.49,-3.68,-116.48,0.25,0.29,0.83
4:8:58:55:179078,15.19,-3.66,-125.54,0.25,0.26,0.79
4:8:58:56:179222,22.66,-1.4,-132.52,0.23,0.25,0.71
4:8:58:57:180346,32.28,29.28,-155.09,0.37,0.38,1.06
4:8:58:57:180362,31,35.39,-156.17,0.36,0.36,0.9
4:8:58:57:180379,26.82,33.18,-157.67,0.36,0.37,0.98
4:8:58:57:180412,25.41,28.63,-157.44,0.38,0.37,1
4:8:58:57:180413,24.61,21.11,-156.83,0.39,0.34,1.02
4:8:58:57:180413,25.54,9.81,-155.29,0.34,0.4,1.03
4:8:58:57:180681,27.87,2.78,-149.78,0.22,0.26,0.69
4:8:58:57:180809,29.7,4.33,-146.69,0.25,0.28,0.73
4:8:58:57:180921,30.45,3.7,-143.91,0.27,0.34,0.86
4:8:58:57:181161,28.24,6.99,-143.46,0.31,0.38,1.02
4:8:58:58:181193,27.53,14.55,-143.82,0.34,0.38,1.04
4:8:58:58:181209,29.57,23.49,-141.99,0.37,0.4,1.08
4:8:58:58:182011,28.77,32.06,-135.21,0.3,0.34,0.87
4:8:58:58:182011,25.74,26.43,-136.4,0.3,0.3,0.92
4:8:58:58:182011,25.37,20.16,-136.12,0.31,0.34,0.9
4:8:58:58:182012,22.04,12.16,-138.08,0.34,0.37,0.95
4:8:58:58:182091,16.81,1.46,-142,0.32,0.34,0.99
4:8:58:58:182171,14.63,-6.8,-145.35,0.29,0.37,0.97
4:8:58:59:182687,34.77,6.4,-162.55,0.29,0.23,0.73
4:8:58:59:182782,37.53,0.64,-161.18,0.28,0.42,1.01
4:8:58:59:182910,35.37,0.16,-162.13,0.3,0.39,1
4:8:58:59:182991,30.06,4.86,-163.88,0.35,0.4,1.09
4:8:58:59:183102,22.72,9,-166.33,0.41,0.44,1.21
4:8:59:0:183200,14.12,8.3,-169.64,0.36,0.33,1.16
4:8:59:0:183704,11.04,11.2,177.27,0.26,0.3,0.94
4:8:59:0:183784,12.78,13.43,173.87,0.26,0.32,0.92
4:8:59:0:183880,12.79,16.15,169.68,0.28,0.28,0.88
4:8:59:0:183992,12.12,16.37,166.37,0.27,0.32,0.95
4:8:59:0:184088,11.2,17.44,163.37,0.29,0.32,0.97
4:8:59:1:184296,10.36,19.04,161.29,0.3,0.34,0.98
4:8:59:2:186035,2.42,23.32,155.24,0.28,0.29,0.89
4:8:59:2:186131,3.8,24.61,156.28,0.27,0.29,0.87
4:8:59:2:186165,3,26.28,157.31,0.27,0.29,0.85
4:8:59:2:186165,1.63,27.28,158.9,0.27,0.3,0.86
4:8:59:2:186166,-0.55,28.41,160.3,0.26,0.3,0.86
4:8:59:2:186166,-3.84,30.11,160.96,0.26,0.28,0.85
4:8:59:3:186351,3.85,31.99,-171.63,0.27,0.31,0.88
4:8:59:3:186351,5.14,30.55,-163.48,0.29,0.31,0.9
4:8:59:3:186371,5.9,29.89,-155.08,0.28,0.28,0.86
4:8:59:3:186372,8.92,28.44,-144.28,0.27,0.3,0.87
4:8:59:3:186403,11.91,26.11,-133.88,0.28,0.3,0.87
4:8:59:3:186435,13.72,23.14,-124.84,0.27,0.32,0.89
4:8:59:3:186730,14.87,18.2,-108.95,0.28,0.32,0.94
4:8:59:3:186794,13.88,17.2,-109.92,0.28,0.3,0.95
4:8:59:3:186906,14.98,16.77,-111.18,0.28,0.31,0.96
4:8:59:3:186986,17.06,16.41,-113.51,0.27,0.33,0.95
4:8:59:3:187066,17.39,15.8,-118.21,0.26,0.31,0.91
4:8:59:4:187194,16.34,15.45,-124.5,0.25,0.32,0.9
4:8:59:5:188290,18.79,19.43,-145.5,0.25,0.33,0.91
4:8:59:5:188290,18.02,21.2,-147.34,0.26,0.32,0.89
4:8:59:5:188321,15.95,22.28,-148.94,0.26,0.31,0.89
4:8:59:5:188337,13.91,22.26,-150.06,0.26,0.32,0.9
4:8:59:5:188353,12.69,22.3,-150.52,0.26,0.29,0.87
4:8:59:5:188370,13.39,22.57,-149.25,0.25,0.32,0.9
4:8:59:5:188727,13.04,25.34,-137.42,0.27,0.31,0.88
4:8:59:5:188791,13.01,24.53,-134.3,0.26,0.3,0.88
4:8:59:5:188871,13.78,23.53,-130.88,0.28,0.3,0.89
4:8:59:5:188999,14.91,22.73,-127.69,0.27,0.3,0.88
4:8:59:5:189079,16.13,21.61,-124.72,0.26,0.31,0.88
4:8:59:6:189191,15.8,22.09,-123.23,0.26,0.3,0.86
4:8:59:6:189682,17.09,19.51,-113.52,0.27,0.32,0.93
4:8:59:6:189794,14.57,20.81,-114.22,0.29,0.3,0.93
4:8:59:6:189890,14.16,20.47,-113.56,0.3,0.31,0.95
4:8:59:6:189986,15.16,19.44,-112.3,0.27,0.34,0.95
4:8:59:6:190065,14.77,20.08,-112.81,0.29,0.33,0.94
4:8:59:6:190177,13.88,19.96,-113.67,0.3,0.31,0.93
4:8:59:7:190685,16.5,18.15,-116.01,0.26,0.28,0.84
4:8:59:7:190781,17.89,17.59,-115.94,0.24,0.31,0.86
4:8:59:7:190876,18.47,17.18,-116.38,0.25,0.31,0.85
4:8:59:7:190972,17.15,17.34,-117.9,0.25,0.31,0.88
4:8:59:7:191084,16.28,16.53,-119.16,0.26,0.31,0.91
4:8:59:7:191165,16.94,15.92,-119.61,0.27,0.32,0.94
4:8:59:8:191671,18.6,19.53,-122.22,0.28,0.35,0.98
4:8:59:8:191781,19.79,20.39,-121.51,0.28,0.33,0.92
4:8:59:8:191878,19.26,19.65,-121.54,0.27,0.34,0.94
4:8:59:8:191974,17.16,19.06,-122.7,0.28,0.33,0.96
4:8:59:8:192086,16.28,18.25,-123.41,0.26,0.32,0.92
4:8:59:9:192182,16.24,18.74,-124.48,0.26,0.32,0.9
4:8:59:9:192688,20.77,18.52,-123.99,0.26,0.32,0.88
4:8:59:9:192800,19.56,18.21,-125.06,0.27,0.31,0.89
4:8:59:9:192880,18.39,18.05,-126.27,0.28,0.29,0.88
4:8:59:9:192976,19.08,16.05,-126.3,0.27,0.31,0.88
4:8:59:9:193104,19.94,15.58,-127.04,0.27,0.31,0.91
4:8:59:10:193199,20.92,15.96,-127.88,0.29,0.3,0.9
4:8:59:10:193691,20.68,12.75,-132.55,0.27,0.3,0.87
4:8:59:10:193771,22.32,14.25,-132.87,0.27,0.29,0.87
4:8:59:10:193883,22.94,15.25,-132.96,0.27,0.31,0.89
4:8:59:10:193979,22.23,16.75,-133.7,0.28,0.32,0.92
4:8:59:10:194107,20.15,18.85,-135.05,0.3,0.29,0.92
4:8:59:11:194219,19.21,18.88,-135.21,0.29,0.34,0.97
4:8:59:11:194736,16.9,21.28,-133.1,0.29,0.29,0.89
4:8:59:11:194768,17.25,20.62,-130.79,0.29,0.29,0.91
4:8:59:11:194879,18.5,19.19,-127.46,0.28,0.31,0.91
4:8:59:11:195072,18.64,18.74,-124.81,0.28,0.32,0.91
4:8:59:11:195088,16.74,18.61,-123.26,0.3,0.29,0.9
4:8:59:12:195216,16.14,15.98,-120.09,0.26,0.3,0.9
4:8:59:12:195690,17.89,14.11,-108.84,0.27,0.31,0.91
4:8:59:12:195786,17.14,13.8,-108.75,0.27,0.3,0.91
4:8:59:12:195865,16.76,13.74,-108.99,0.26,0.31,0.89
4:8:59:12:196057,15.47,14.35,-110.4,0.26,0.28,0.86
4:8:59:12:196073,15.25,13.52,-111.21,0.26,0.28,0.86
4:8:59:13:196217,16.75,13.5,-111.62,0.26,0.3,0.9
4:8:59:13:196688,17.95,15.22,-121.35,0.22,0.37,0.94
4:8:59:13:196800,18.73,15.99,-123.02,0.25,0.28,0.87
4:8:59:13:196864,20.12,16.13,-124.03,0.25,0.36,0.9
4:8:59:13:197040,19.75,16.77,-126.09,0.25,0.31,0.93
4:8:59:13:197072,19.87,16.21,-127.44,0.26,0.28,0.94
4:8:59:14:197389,20.6,15.03,-128.55,0.26,0.26,0.94
4:8:59:14:197674,16.45,19.8,-139.59,0.28,0.28,0.91
4:8:59:14:197802,17.19,19.75,-140.32,0.29,0.34,0.87
4:8:59:14:197978,17.02,20.2,-141.57,0.29,0.31,0.86
4:8:59:14:198026,16.91,20.44,-142.57,0.28,0.24,0.86
4:8:59:14:198106,17.02,19.89,-143.4,0.29,0.28,0.88
4:8:59:15:198186,17.51,19.82,-144.58,0.28,0.27,0.88
4:8:59:15:198945,22.89,19.04,-149.05,0.26,0.28,0.85
4:8:59:15:198945,23.3,18.88,-150.24,0.26,0.28,0.85
4:8:59:15:198946,24.3,18.17,-150.65,0.27,0.28,0.85
4:8:59:15:198977,25.35,17.82,-150.73,0.26,0.29,0.85
4:8:59:15:199073,25.42,18.69,-150.79,0.27,0.28,0.87
4:8:59:15:199170,27.3,19.68,-149.17,0.27,0.29,0.85
4:8:59:16:199890,19.56,15.15,-133.17,0.29,0.31,0.92
4:8:59:16:199891,17.9,14.77,-127.22,0.27,0.3,0.9
4:8:59:16:199891,17.85,15.16,-120.08,0.26,0.3,0.9
4:8:59:16:199971,18.59,16.19,-112.73,0.28,0.3,0.9
4:8:59:16:200163,19.07,14.92,-105.53,0.25,0.33,0.91
4:8:59:16:200179,16.8,14.38,-100.78,0.26,0.3,0.92
4:8:59:17:200721,15.9,15.11,-98.79,0.25,0.28,0.89
4:8:59:17:200786,16.89,14.42,-102.83,0.25,0.3,0.91
4:8:59:17:200961,17.44,14.8,-108.52,0.25,0.3,0.91
4:8:59:17:200993,17.07,14.74,-115.77,0.25,0.31,0.91
4:8:59:17:201090,16.23,15.96,-124.34,0.27,0.27,0.95
4:8:59:18:201201,17.48,17.01,-131.57,0.28,0.3,0.94
4:8:59:18:201684,16.71,17.65,-163.11,0.28,0.31,0.93
4:8:59:18:201781,16.9,18.29,-167.03,0.28,0.29,0.9
4:8:59:18:201877,18.09,17.78,-169.12,0.27,0.29,0.88
4:8:59:18:201973,19.05,17.38,-170.41,0.27,0.29,0.86
4:8:59:18:202069,19.62,17.45,-171.14,0.27,0.29,0.88
4:8:59:19:202196,20.18,18.02,-171.13,0.27,0.3,0.87
4:8:59:19:202680,21.84,18.06,-160.4,0.29,0.26,0.85
4:8:59:19:202793,24.01,15.35,-155.11,0.26,0.28,0.85
4:8:59:19:202904,23.3,13.94,-151.06,0.24,0.31,0.87
4:8:59:19:202985,22.33,13.01,-146.7,0.26,0.37,0.85
4:8:59:19:203080,21.99,12.08,-141.85,0.26,0.28,0.84
4:8:59:20:203192,21.52,12.1,-137.44,0.23,0.3,0.81
4:8:59:20:203744,17.07,12.24,-120.47,0.2,0.31,0.91
4:8:59:20:203792,22.99,13.29,-116.37,0.22,0.37,0.92
4:8:59:20:203904,24.96,14.29,-115.82,0.2,0.37,0.96
4:8:59:20:204016,23.4,16.55,-118.42,0.25,0.35,0.95
4:8:59:20:204096,19.95,19.37,-122.7,0.28,0.36,0.96
4:8:59:21:204208,19.17,19.54,-125.58,0.22,0.32,0.92
4:8:59:21:204735,18.58,19.79,-141.96,0.23,0.25,0.9
4:8:59:21:204799,17.4,19.25,-147.05,0.25,0.22,0.85
4:8:59:21:204959,15.3,19.22,-152.6,0.25,0.21,0.83
4:8:59:21:204975,14.48,19.09,-156.6,0.23,0.21,0.83
4:8:59:21:205119,14.65,18.95,-159.01,0.25,0.21,0.81
4:8:59:22:205200,15.08,17.69,-160.17,0.23,0.32,0.84
4:8:59:22:205688,18.99,12.36,-159.16,0.28,0.21,1.01
4:8:59:22:205785,18.88,13.58,-159.53,0.31,0.28,0.88
4:8:59:22:205880,20.28,10.93,-159.44,0.25,0.27,0.91
4:8:59:22:205977,21.36,8.21,-159.63,0.21,0.39,0.96
4:8:59:22:206073,19.51,8.97,-159.68,0.2,0.31,0.95
4:8:59:23:206200,18.8,10.64,-157.26,0.23,0.24,0.92
4:8:59:23:206674,18.39,10.18,-124.06,0.17,0.31,0.93
4:8:59:23:206786,19.05,9.55,-116.17,0.12,0.32,0.9
4:8:59:23:206883,19.62,7.49,-108.65,0.12,0.28,0.88
4:8:59:23:206978,18.62,5.89,-101.91,0.15,0.24,0.88
4:8:59:23:207074,18.89,3.5,-95.87,0.11,0.31,0.86
4:8:59:24:207218,17.64,4.45,-89.9,0.16,0.26,0.86
4:8:59:24:207774,9.23,10.95,-94.79,0.27,0.27,1.01
4:8:59:24:207774,12.65,9.37,-99.05,0.18,0.32,1
4:8:59:24:208013,13.56,9.25,-105.83,0.24,0.33,1.03
4:8:59:24:208013,14.74,9.36,-113.47,0.19,0.3,1.05
4:8:59:24:208077,14.91,10.17,-122.35,0.2,0.33,0.98
4:8:59:24:208172,13.67,11.57,-131.92,0.2,0.3,1
4:8:59:25:208694,12.85,15.89,-167.13,0.24,0.29,0.98
4:8:59:25:208774,11.63,16.18,-171.27,0.25,0.29,0.97
4:8:59:25:208871,11.32,15.73,-174.12,0.24,0.29,0.96
4:8:59:25:208998,10.64,15.17,-176.53,0.24,0.27,0.94
4:8:59:25:209062,11.28,14.88,-177.49,0.23,0.28,0.94
4:8:59:26:209190,12.33,14.99,-177.86,0.25,0.25,0.91
4:8:59:26:209676,16.8,13.99,-175.93,0.25,0.28,0.95
4:8:59:26:209781,17.69,13.74,-175.26,0.24,0.28,0.92
4:8:59:26:209861,16.03,14.27,-175.83,0.25,0.25,0.91
4:8:59:26:209989,15.37,13.55,-175.44,0.23,0.26,0.9
4:8:59:26:210085,15.51,13.19,-174.64,0.23,0.28,0.89
4:8:59:27:210213,15.25,15.04,-174.36,0.23,0.23,0.86
4:8:59:27:210686,13.07,14.93,-168.09,0.25,0.24,0.92
4:8:59:27:210782,11.63,15.74,-167.03,0.25,0.24,0.92
4:8:59:27:210926,12.64,16.56,-164.79,0.25,0.25,0.94
4:8:59:27:210989,15.04,18.1,-161.79,0.26,0.25,0.91
4:8:59:27:211107,16.03,17.09,-159.55,0.27,0.26,0.96
4:8:59:27:211170,14.44,15.12,-158.55,0.26,0.34,0.99
4:8:59:28:211676,8.59,16.15,-161.25,0.22,0.31,0.96
4:8:59:28:211771,10,15.79,-161.55,0.28,0.22,0.91
4:8:59:28:211884,11.42,14.79,-162.23,0.24,0.31,0.88
4:8:59:28:212011,11.49,15.39,-164.26,0.24,0.2,0.88
4:8:59:28:212091,12.21,13.61,-167.47,0.21,0.22,0.87
4:8:59:29:212203,14.48,9.53,-170.27,0.11,0.31,0.89
4:8:59:29:212687,14.08,9.85,167.11,0.17,0.25,0.93
4:8:59:29:212783,13.07,9.84,164.51,0.15,0.33,1
4:8:59:29:212895,11.05,10.57,161.55,0.19,0.29,1
4:8:59:29:212975,5.59,13.77,161.58,0.29,0.22,0.95
4:8:59:29:213087,3.59,13.64,163.36,0.3,0.26,0.98
4:8:59:30:213183,1.29,13.43,166.67,0.3,0.29,0.99
4:8:59:30:213673,-1.2,19.2,-168.91,0.26,0.29,0.9
4:8:59:30:213769,0.65,19.91,-163.65,0.27,0.23,0.96
4:8:59:30:213880,2.47,20.28,-159.21,0.27,0.25,0.95
4:8:59:30:214008,5.18,18.88,-154.81,0.2,0.32,0.99
4:8:59:30:214073,7.26,17.67,-151.72,0.16,0.27,0.97
4:8:59:30:214168,7.8,17.87,-150.56,0.24,0.3,0.94
4:8:59:32:215687,-6.52,27.84,177.82,0.27,0.29,1.02
4:8:59:32:215800,-12.34,30.16,173.77,0.27,0.27,0.99
4:8:59:32:215880,-19.31,31.25,169.82,0.27,0.27,0.99
4:8:59:32:215992,-24.72,31.24,167.15,0.28,0.25,0.97
4:8:59:32:216152,-20.2,29.11,171.36,0.26,0.27,0.96
4:8:59:32:216168,-17.41,26.95,174.97,0.26,0.24,0.92
4:8:59:33:216688,-16,28.76,-172.12,0.25,0.25,0.91
4:8:59:33:216785,-11.75,26.94,-167.29,0.24,0.26,0.93
4:8:59:33:216913,-9.34,26.78,-164.72,0.26,0.26,0.96
4:8:59:33:217008,-7.7,27.23,-162.39,0.27,0.26,0.98
4:8:59:33:217105,-8.49,28.35,-161.15,0.27,0.25,0.96
4:8:59:34:217185,-5.49,26.42,-157.18,0.25,0.25,0.91
4:8:59:34:217706,2.74,18.5,-145.54,0.26,0.25,0.96
4:8:59:34:217786,4.04,18.53,-144.71,0.25,0.26,0.95
4:8:59:34:217882,4.05,20.43,-145.45,0.22,0.26,0.88
4:8:59:34:217978,-0.15,25.21,-148.9,0.25,0.2,0.87
4:8:59:34:218106,-0.14,28.25,-148.38,0.26,0.22,0.86
4:8:59:35:218186,5.63,26.16,-142.57,0.25,0.28,0.93
4:8:59:35:218682,13.18,16.2,-129.34,0.18,0.39,0.91
4:8:59:35:218810,14.31,15.78,-128.07,0.24,0.33,0.87
4:8:59:35:218890,12.66,13.67,-127.99,0.21,0.26,0.91
4:8:59:35:218986,12.37,10.85,-127.49,0.19,0.35,0.91
4:8:59:35:219081,12.99,10.89,-127.59,0.2,0.28,0.88
4:8:59:36:219194,15.06,11.67,-127.25,0.21,0.28,0.91
4:8:59:36:219664,15.53,18.41,-132.05,0.24,0.31,0.98
4:8:59:36:219792,14.86,20.27,-132.71,0.21,0.31,1.04
4:8:59:36:219871,13.72,21.56,-133.49,0.24,0.32,0.98
4:8:59:36:219983,11.94,22.14,-134.53,0.23,0.32,0.98
4:8:59:36:220080,10.44,21.52,-135.54,0.2,0.35,0.99
4:8:59:36:220175,9.37,19.95,-136.91,0.21,0.32,0.95
4:8:59:38:221672,8.74,9.73,114.22,0.18,0.27,0.9
4:8:59:38:221767,9.84,6.86,91.25,0.16,0.26,0.91
4:8:59:38:221863,11.71,4.6,61.5,0.16,0.25,0.93
4:8:59:38:222007,16.24,3.24,26.22,0.16,0.24,0.95
4:8:59:38:222072,21.18,5.74,-10.75,0.17,0.25,0.97
4:8:59:39:222183,22.75,10.62,-46.76,0.16,0.24,0.96
4:8:59:39:222666,13.63,15.15,129.8,0.17,0.19,1.01
4:8:59:39:222778,11.56,9.06,99.83,0.11,0.14,1.04
4:8:59:39:222874,7.12,9.7,103.08,0.25,0.14,0.96
4:8:59:39:222986,9.13,12.66,140.27,0.13,0.27,0.96
4:8:59:40:223370,10.48,18.12,-179.46,0.18,0.37,0.89
4:8:59:40:223401,7.57,22.32,-156.16,0.26,0.26,0.91
4:8:59:40:223674,4.12,11.69,155.67,0.15,0.18,0.91
4:8:59:40:223786,2.86,18.36,174.93,0.17,0.24,0.88
4:8:59:40:223913,4.15,21.95,-161.22,0.19,0.23,0.94
4:8:59:40:224010,6.08,22.5,-146.59,0.19,0.31,0.9
4:8:59:40:224074,9.99,20.18,-147.89,0.16,0.28,0.98
4:8:59:41:224198,10.21,18.59,-164.18,0.18,0.24,0.96
4:8:59:41:224681,11.91,13.22,-147.58,0.09,0.31,0.98
4:8:59:41:224794,12.81,12.63,-148.94,0.1,0.26,1
4:8:59:41:224874,14.17,12.7,-159.69,0.12,0.33,0.94
4:8:59:41:224985,13.25,10.82,-172.73,0.11,0.27,1.02
4:8:59:41:225097,12.46,8.74,-179.46,0.11,0.25,1.03
4:8:59:41:225177,12.16,9.36,-175.48,0.15,0.25,0.98
4:8:59:42:225678,14.88,4.4,-161.8,0.16,0.2,0.95
4:8:59:42:225790,15.91,1.69,-163.57,0.12,0.22,1
4:8:59:42:225882,15.35,1.98,-161.63,0.14,0.18,0.93
4:8:59:42:225978,11.36,5.62,-158.51,0.22,0.14,0.93
4:8:59:42:226074,8.75,7.78,-153.28,0.2,0.19,0.93
4:8:59:42:226170,8.2,6.64,-147.69,0.18,0.2,0.91
4:8:59:43:226684,8.29,8.89,-152.28,0.16,0.25,0.9
4:8:59:43:226778,5.75,10,-142.99,0.21,0.09,0.91
4:8:59:43:226875,4.17,9.24,-129.04,0.06,0.22,0.96
4:8:59:43:226971,3.57,10.66,-119.09,0.02,0.15,0.99
4:8:59:43:227082,3.78,12.54,-118.89,0.07,0.19,0.99
4:8:59:43:227178,4.25,12.4,-125.77,0.15,0.15,0.96
4:8:59:45:228673,15.17,-5.4,-108.12,0.08,0.14,0.99
4:8:59:45:228768,14.44,-1.4,-106.16,0.08,0.14,0.97
4:8:59:45:228881,12.58,2.54,-103.93,0.12,0.08,0.95
4:8:59:45:228993,12.92,3.66,-101.49,0.08,0.12,0.97
4:8:59:45:229089,14.91,5.17,-99.56,0.08,0.22,0.93
4:8:59:46:229185,16.04,8.63,-99.69,0.15,0.18,0.94
4:8:59:46:229679,16.06,14.32,-101.37,0.19,0.22,0.9
4:8:59:46:229775,15.11,14.36,-104.64,0.21,0.23,0.97
4:8:59:46:229902,13.53,13.01,-108.99,0.21,0.22,0.98
4:8:59:46:229982,13.75,11.66,-111.08,0.21,0.22,0.96
4:8:59:46:230078,14.67,9.51,-110.24,0.21,0.18,1.01
4:8:59:46:230175,14.71,8.02,-110.13,0.21,0.22,0.99
4:8:59:47:230687,10.59,9.02,-114.72,0.13,0.17,0.98
4:8:59:47:230784,10.39,8.51,-114.19,0.12,0.17,0.98
4:8:59:47:230879,9.29,10.9,-117.67,0.18,0.16,0.98
4:8:59:47:230975,9.71,11.71,-120.99,0.17,0.16,0.98
4:8:59:47:231087,11.89,10.83,-121.91,0.12,0.17,0.96
4:8:59:48:231183,12.94,12.88,-123.36,0.15,0.16,0.97
4:8:59:48:231665,13.54,17.05,-133.03,0.19,0.21,0.92
4:8:59:48:231793,15.21,18.54,-135.9,0.24,0.2,0.91
4:8:59:48:231890,16.72,19.02,-140.24,0.18,0.22,0.88
4:8:59:48:231986,15.2,18.69,-147.15,0.2,0.18,0.92
4:8:59:48:232081,15.07,17.62,-150.82,0.19,0.17,0.84
4:8:59:48:232177,17.12,16.18,-149.83,0.16,0.14,0.89
4:8:59:49:232683,16.51,10.39,-159.62,0.18,0.18,0.93
4:8:59:49:232779,15.28,10.78,-161.22,0.13,0.2,0.94
4:8:59:49:232891,12.19,12.7,-161.41,0.14,0.11,0.91
4:8:59:49:232987,11.86,14.38,-160.33,0.15,0.2,0.88
4:8:59:49:233083,13.16,14.79,-158.94,0.1,0.22,0.9
4:8:59:49:233179,11.71,18.11,-162.86,0.17,0.17,0.89
4:8:59:50:233671,8.09,16.09,-166.81,0.14,0.12,0.87
4:8:59:50:233783,14.28,12.5,-161.03,0.07,0.28,0.93
4:8:59:50:233879,13.47,12.03,-165.07,0.12,0.26,1.07
4:8:59:50:234007,11.72,10.96,-174.59,0.15,0.23,0.98
4:8:59:50:234087,12.32,8.01,178.66,0.08,0.15,1.04
4:8:59:50:234167,12.67,8.97,176.37,0.07,0.17,1.09
4:8:59:51:234685,14.66,13.85,172.65,0.14,0.24,1.02
4:8:59:51:234765,13.77,12.53,169.89,0.15,0.21,0.96
4:8:59:51:234893,14.39,12.17,170.25,0.16,0.18,1
4:8:59:51:234990,15.91,11.62,174.29,0.16,0.23,0.97
4:8:59:51:235085,16.7,9.96,178.35,0.18,0.23,1.02
4:8:59:52:235182,15.84,8.81,179.15,0.18,0.22,0.99
4:8:59:52:235705,12.34,5.23,-167.43,0.14,0.18,0.89
4:8:59:52:235785,9.67,5.03,-163.69,0.17,0.13,0.93
4:8:59:52:235881,9.32,4.57,-159.99,0.12,0.22,0.91
4:8:59:52:235977,7.85,5.39,-157.88,0.13,0.23,0.87
4:8:59:52:236073,4.68,5.13,-157.41,0.14,0.18,0.89
4:8:59:53:236185,3.49,4.45,-156.23,0.14,0.2,0.88
4:8:59:54:237720,8.32,7.01,-131.1,0.16,0.2,0.94
4:8:59:54:237768,8.98,7.79,-130.77,0.17,0.17,0.96
4:8:59:54:237881,8.85,9.51,-129.07,0.13,0.19,0.92
4:8:59:54:237976,8.61,9.86,-127.63,0.13,0.18,0.96
4:8:59:54:238072,9.78,8.71,-127.25,0.11,0.15,0.97
4:8:59:54:238168,11.44,8.96,-129.65,0.12,0.17,0.97
4:8:59:55:238689,10.02,13.38,-140.87,0.17,0.14,1.09
4:8:59:55:238786,11.54,12.79,-141.16,0.12,0.17,1.11
4:8:59:55:238882,13.41,14.63,-142.85,0.14,0.17,1.03
4:8:59:55:238993,12.46,14.34,-144.38,0.13,0.15,0.98
4:8:59:55:239106,12.64,13.68,-143.4,0.12,0.17,0.95
4:8:59:55:239170,12.85,15.19,-142.18,0.15,0.19,0.91
4:8:59:56:239678,9.48,12.27,-148.81,0.14,0.15,1
4:8:59:56:239790,9.22,10.55,-150.61,0.13,0.16,0.96
4:8:59:56:239870,10.71,12.83,-151.12,0.17,0.18,0.93
4:8:59:56:239966,10.35,13.03,-150.22,0.17,0.17,1.02
4:8:59:56:240094,9.9,13.86,-146.7,0.21,0.18,1.02
4:8:59:57:240189,10.76,16.96,-143.54,0.14,0.2,1
4:8:59:57:240672,10.01,22.72,-139.39,0.14,0.21,0.89
4:8:59:57:240785,7.02,25.06,-135.41,0.17,0.22,0.91
4:8:59:57:240864,5.84,26.15,-133.32,0.25,0.24,0.91
4:8:59:57:240992,5.16,23.62,-133.24,0.22,0.26,1.01
4:8:59:57:241088,3.97,23.21,-135.26,0.2,0.21,1.06
4:8:59:58:241184,4.2,22.89,-135.57,0.21,0.22,1.08
4:8:59:58:241680,-0.88,25.9,-128.59,0.19,0.2,0.98
4:8:59:58:241776,-0.88,22.69,-130.51,0.19,0.18,0.95
4:8:59:58:241904,2.41,19.96,-127.83,0.17,0.2,0.93
4:8:59:58:241967,4.33,20.92,-124.57,0.17,0.22,0.91
4:8:59:58:242080,3.03,20.56,-123.4,0.18,0.19,0.92
4:8:59:58:242176,1.08,19.25,-122.06,0.17,0.17,0.94
4:8:59:59:242682,3.92,21.13,-115.22,0.15,0.16,0.93
4:8:59:59:242779,5.98,20.86,-112.72,0.16,0.19,0.95
4:8:59:59:242874,5.85,19.24,-113.14,0.15,0.18,0.99
4:8:59:59:242970,6.08,19.19,-114.67,0.16,0.17,0.98
4:8:59:59:243067,8.25,18.93,-113.87,0.17,0.17,1
4:8:59:59:243178,9.95,18.08,-111.72,0.15,0.2,1.02
4:9:0:0:243679,12.1,14.47,-110.31,0.15,0.1,0.99
4:9:0:0:243775,12.9,11.21,-106.91,0.09,0.19,1.06
4:9:0:0:243887,12.57,12.56,-105.04,0.16,0.19,0.99
4:9:0:0:243983,12.49,11.83,-105.4,0.14,0.2,0.97
4:9:0:0:244079,13.16,9.03,-107.23,0.16,0.21,0.99
4:9:0:1:244191,14.52,8.16,-108.68,0.12,0.27,0.99
4:9:0:1:244679,14.12,5.29,-104.49,0.15,0.21,1
4:9:0:1:244791,14.31,4.68,-104.92,0.12,0.21,1
4:9:0:1:244887,14.11,5.11,-105.22,0.15,0.14,0.97
4:9:0:1:244983,14.01,4.64,-103.77,0.16,0.19,0.97
4:9:0:1:245078,15.07,3.84,-100,0.13,0.29,0.98
4:9:0:1:245175,13.74,5.06,-97.6,0.12,0.25,0.97
4:9:0:2:245683,13.74,8.61,-95.21,0.24,0.14,0.88
4:9:0:2:245779,14.53,8.88,-95.02,0.24,0.25,0.88
4:9:0:2:245892,13.66,8.46,-93.9,0.25,0.15,0.87
4:9:0:2:245971,12.46,8.82,-90.41,0.17,0.2,0.87
4:9:0:2:246099,12.25,10.76,-85.99,0.2,0.2,0.85
4:9:0:2:246163,10.83,11.14,-82.91,0.2,0.27,0.9
4:9:0:3:246676,9.95,18.25,-72.31,0.24,0.23,1.01
4:9:0:3:246772,10.48,17.73,-70.33,0.19,0.25,1
4:9:0:3:246868,9.22,18.43,-75.43,0.22,0.24,0.99
4:9:0:3:246979,10.17,18.79,-80.07,0.23,0.22,0.94
4:9:0:3:247091,12.48,18.94,-80.49,0.21,0.22,0.89
4:9:0:3:247172,12.71,19.39,-80.4,0.22,0.23,0.86
4:9:0:4:247688,52.64,41.71,-1.62,-0.26,-0.13,-0.43
4:9:0:4:247800,-48.73,74.28,-38.41,0.18,-0.17,-0.39
4:9:0:4:247897,-94.73,65.11,-32.48,0.01,-0.18,-0.05
4:9:0:4:247976,-72.55,43.49,6.86,4.07,-1.13,3.25
4:9:0:4:248073,-61.53,45.82,9.77,0.93,0.05,0.53
4:9:0:4:248169,-74.99,41.2,-9.3,0.8,-0.46,-0.28
4:9:0:5:248598,-79.96,42.28,-16.2,0.91,-0.38,0.06
4:9:0:5:248678,-80.59,42.72,-17.55,0.91,-0.37,0.07
4:9:0:5:248790,-80.99,43.04,-18.75,0.91,-0.38,0.06
4:9:0:5:248886,-81.27,43.32,-19.88,0.91,-0.37,0.06
4:9:0:5:248982,-81.42,43.47,-20.97,0.91,-0.38,0.06
4:9:0:5:249078,-81.42,43.65,-21.92,0.91,-0.37,0.07
4:9:0:6:249190,-81.38,43.76,-22.88,0.91,-0.37,0.06
4:9:0:6:249596,-81.04,44.2,-26.89,0.9,-0.38,0.06
4:9:0:6:249677,-81.21,44.76,-28.01,0.91,-0.38,0.06
4:9:0:6:249773,-81.59,45.52,-29.22,0.91,-0.38,0.07
4:9:0:6:249885,-81.81,46.11,-30.33,0.91,-0.38,0.07
4:9:0:6:249997,-81.92,46.56,-31.4,0.91,-0.38,0.06
4:9:0:6:250093,-81.93,46.89,-32.42,0.91,-0.38,0.07
4:9:0:7:250189,-81.91,47.14,-33.45,0.91,-0.37,0.07
4:9:0:7:250594,-80.57,47.39,-36.99,0.91,-0.37,0.07
4:9:0:7:250722,-79.95,46.97,-38.01,0.91,-0.38,0.06
4:9:0:7:250786,-79.42,46.67,-39.11,0.91,-0.38,0.06
4:9:0:7:250897,-79,46.57,-40.22,0.91,-0.38,0.06
4:9:0:7:250994,-78.58,46.49,-41.38,0.91,-0.38,0.07
4:9:0:7:251089,-78.13,46.43,-42.57,0.91,-0.38,0.06
4:9:0:8:251185,-77.75,46.45,-43.8,0.91,-0.38,0.07
4:9:0:8:251586,-76.28,46.8,-49.06,0.9,-0.35,0.06
4:9:0:8:251697,-76.36,47.69,-50.32,0.9,-0.37,0.07
4:9:0:8:251793,-75.95,47.65,-51.85,0.91,-0.38,0.06
4:9:0:8:251889,-75.51,47.72,-53.25,0.91,-0.37,0.07
4:9:0:8:251985,-75.35,47.98,-54.66,0.92,-0.39,0.06
4:9:0:8:252082,-75.48,48.57,-56.17,0.91,-0.38,0.06
