sysTime,roll,pitch,yaw,ax,ay,az,root,ave
4:10:1:52:5990,27.87,-52.35,-146.45,-0.81,0.2,0.52,0.983107319,
4:10:1:52:5992,35.95,-53.36,-149.35,-0.76,0.27,0.44,0.91874915,
4:10:1:52:6254,32.29,-52.14,-128.9,-0.79,0.44,0.53,1.048141212,
4:10:1:52:6351,31.46,-50.56,-123.2,-0.7,0.36,0.6,0.989747443,
4:10:1:52:6464,28.73,-48.56,-116.01,-0.71,0.34,0.6,0.989797959,1.009228871
4:10:1:52:6542,24.36,-48.11,-108.6,-0.7,0.24,0.65,0.984936546,0.988160649
4:10:1:52:6655,21.43,-48.05,-101.26,-0.67,0.2,0.67,0.968400743,0.981045083
4:10:1:52:6735,15.89,-49.3,-94.16,-0.73,0.21,0.65,0.999749969,0.984362419
4:10:1:53:6847,7.9,-50.53,-86.86,-0.75,0.18,0.67,1.021665307,0.99660534
4:10:1:53:7253,47.06,-62.59,-84.97,-0.72,0.36,0.42,0.907964757,0.976460011
4:10:1:53:7332,65.04,-64.59,-90.28,-0.9,0.46,0.34,1.066395799,0.998675288
4:10:1:53:7444,66.49,-64.65,-85.86,-0.91,0.55,0.19,1.08013888,1.018166479
4:10:1:53:7540,60.89,-64.98,-74.34,-0.94,0.69,0.18,1.179872875,1.108802518
4:10:1:53:7636,61.68,-63.53,-72.16,-0.52,0.85,0.2,1.01631688,1.092109545
4:10:1:53:7745,60.81,-62.31,-72.21,-0.62,0.73,0.29,1.000699755,1.065629836
4:10:1:54:7842,59.63,-61.26,-74.02,-0.59,0.75,0.28,0.994484791,1.003833809
4:10:1:54:8243,56.2,-70.92,-76.98,-0.88,0.78,0.25,1.202206305,1.06579695
4:10:1:54:8355,55.49,-71.85,-76.37,-0.7,0.44,0.16,0.842140131,1.012943742
4:10:1:54:8451,61.37,-72.94,-79.91,-0.81,0.6,0.27,1.043551628,1.029299355
4:10:1:54:8531,63.43,-73.42,-79.07,-0.73,0.49,0.25,0.914056891,0.93324955
4:10:1:54:8659,69.04,-72.61,-81.98,-0.79,0.5,0.25,0.967780967,0.975129829
4:10:1:54:8738,68.3,-70.89,-79.73,-0.87,0.5,0.24,1.031746093,0.97119465
4:10:1:54:8836,65.05,-69.18,-75.97,-0.78,0.65,0.29,1.055935604,1.018487555
4:10:1:55:9253,67.79,-69.24,-78.97,-0.68,0.68,0.17,0.97657565,1.021419116
4:10:1:55:9333,73.15,-69.29,-82.81,-0.65,0.64,0.26,0.948525171,0.993678808
4:10:1:55:9445,65.6,-70.45,-76.3,-0.68,0.61,0.28,0.955458005,0.960186275
4:10:1:55:9556,57.74,-72.93,-68.38,-0.95,0.61,0.44,1.21169303,1.038558736
4:10:1:55:9653,47.25,-74.93,-57.74,-0.77,0.81,-0.09,1.121204709,1.096118582
4:10:1:55:9748,55.09,-75.26,-62.11,-0.82,0.82,0.2,1.176775255,1.169890998
4:10:1:56:9844,61.26,-76.83,-65.83,-0.68,0.46,0.16,0.836420947,1.044800304
4:10:1:56:10246,98.14,-79.88,-106.38,-0.69,0.9,0,1.13406349,1.049086564
4:10:1:56:10358,91.26,-77.84,-103.81,-0.78,0.55,0.01,0.9544632,0.974982546
4:10:1:56:10454,113.47,-76.31,-129.55,-0.61,0.54,0.12,0.823468275,0.970664988
4:10:1:56:10550,122.48,-73.74,-137.75,-0.7,0.61,0.3,0.975756117,0.917895864
4:10:1:56:10631,122.52,-75.27,-139.51,-0.83,0.85,0.16,1.198749348,0.99932458
4:10:1:56:10742,113.17,-79.17,-131.66,-0.98,1.11,-0.29,1.508840615,1.227782027
4:10:1:57:10854,103.44,-79.94,-122.2,-0.74,0.75,0.03,1.054039847,1.253876603
4:10:1:57:11239,98.94,-78.54,-115.16,-1.1,1.03,-0.09,1.509635718,1.357505393
4:10:1:57:11351,100.82,-79.75,-115.24,-0.68,0.84,0.02,1.080925529,1.214867031
4:10:1:57:11448,114.83,-80.37,-131.79,-0.59,0.55,0.06,0.80882631,1.133129186
4:10:1:57:11543,128.71,-78.3,-147.92,-0.57,0.56,0.12,0.808022277,0.899258039
4:10:1:57:11639,123.49,-75.35,-141.47,-0.67,0.73,0.08,0.994082492,0.87031036
4:10:1:57:11751,102.87,-75.86,-123.29,-0.81,0.94,0.16,1.251119499,1.017741422
4:10:1:57:11831,93.58,-80.48,-115.7,-0.88,0.82,-0.13,1.209834699,1.151678897
4:10:1:58:12239,76.25,-83.4,-96.25,-0.61,0.59,0.41,0.942496684,1.134483627
4:10:1:58:12351,80.43,-81.89,-99.72,-0.66,0.8,0.54,1.169273279,1.107201554
4:10:1:58:12462,64.74,-77.04,-87.78,-1.08,1.11,-0.47,1.618456054,1.243408672
4:10:1:58:12542,77.62,-77.94,-100.11,-0.89,0.6,0.42,1.152605744,1.313445025
4:10:1:58:12638,75.49,-80.01,-98.43,-0.48,0.38,0.12,0.623858958,1.131640252
4:10:1:58:12751,82.19,-81.3,-103,-0.67,0.54,0.15,0.873498712,0.883321138
4:10:1:59:12846,65.83,-82.1,-85.34,-0.72,0.76,0.32,1.094714575,0.864024082
4:10:1:59:13260,-6.56,-77.66,-0.83,-0.59,0.37,0.19,0.721872565,0.896695284
4:10:1:59:13340,-8.98,-81.71,2.58,-0.83,0.57,0.33,1.059575387,0.958720842
4:10:1:59:13437,0.28,-81.6,-7.86,-1.03,0.76,0.44,1.353550886,1.044999612
4:10:1:59:13548,2.75,-80.61,-15,-1.14,0.59,-0.36,1.333154155,1.248760142
4:10:1:59:13660,24.49,-78.72,-37.18,-0.75,0.62,0.23,0.999899995,1.228868345
4:10:1:59:13740,51.33,-78.98,-64.81,-0.5,0.47,0.23,0.723740285,1.018931478
4:10:2:0:13868,54.47,-80.84,-69.45,-0.62,0.54,0.24,0.856504524,0.860048268
4:10:2:0:14255,10.18,-73.18,-32.04,-0.63,0.91,0.54,1.231503147,0.937249319
4:10:2:0:14335,4.13,-72.94,-28.51,-0.42,0.34,0.3,0.618061486,0.902023052
4:10:2:0:14462,4.24,-77,-31.71,-0.5,0.37,0.42,0.750533144,0.866699259
4:10:2:0:14543,31.76,-82.05,-63.72,-0.8,0.64,0.45,1.118972743,0.829189124
4:10:2:0:14656,79.28,-83.4,-116.49,-0.9,0.68,0.34,1.178134118,1.015880002
4:10:2:0:14783,92.65,-79.34,-133.82,-0.84,0.85,0.24,1.21889294,1.171999934
4:10:2:1:14846,120.14,-73.28,-161.43,-0.62,0.53,0.19,0.837496269,1.078174442
4:10:2:1:15244,124.57,-67.77,-177.01,-0.87,0.94,-0.03,1.281171339,1.112520183
4:10:2:1:15341,121.29,-66.85,-177.23,-0.71,0.71,0.15,1.015233963,1.044633857
4:10:2:1:15500,121.88,-64.15,178.82,-0.72,0.4,0.17,0.841011296,1.045805533
4:10:2:1:15548,117.35,-65.35,174.71,-0.95,0.38,0.31,1.069111781,0.975119013
4:10:2:1:15644,117.39,-66.76,167.68,-1.18,0.32,0.48,1.31346869,1.074530589
4:10:2:1:15772,105.95,-73.94,169.25,-1.04,0.27,0.4,1.146516463,1.176365645
4:10:2:2:15852,104.29,-81.08,160.38,-0.97,0.32,0.32,1.070373766,1.176786307
4:10:2:2:16255,-93.26,-85.05,-22.18,-1.05,-0.19,0.03,1.067473653,1.094787961
4:10:2:2:16334,-84.47,-80.96,-31.4,-0.94,-0.29,0.03,0.984174781,1.040674067
4:10:2:2:16431,-90.01,-79.46,-26.04,-0.92,-0.38,-0.1,1.00039992,1.017349451
4:10:2:2:16559,-98.06,-75.71,-20.83,-0.81,-0.42,-0.08,0.915914843,0.966829848
4:10:2:2:16639,-97.54,-73.62,-21.52,-1.07,-0.26,-0.17,1.114181314,1.010165359
4:10:2:2:16734,-90.29,-74.35,-29.26,-0.77,-0.27,-0.3,0.869367586,0.966487914
4:10:2:3:16892,-85.37,-73.32,-35.13,-0.98,-0.4,-0.07,1.060801584,1.014783495
4:10:2:3:17262,-71.44,-70.69,-56.94,-0.94,-0.41,-0.08,1.028639879,0.986269683
4:10:2:3:17326,-58.29,-66.85,-68.06,-0.98,-0.32,-0.05,1.032133712,1.040525058
4:10:2:3:17438,-38.35,-64.06,-83.51,-1.03,-0.28,0.2,1.0859558,1.048909797
4:10:2:3:17550,-17.14,-58.79,-100.85,-0.96,-0.16,0.4,1.052235715,1.056775076
4:10:2:3:17662,13.94,-56.11,-125.23,-0.74,0.03,0.43,0.856387763,0.998193093
4:10:2:3:17758,38.01,-52.15,-143.87,-0.91,0.24,0.38,1.014938422,0.974520633
4:10:2:4:17854,51.47,-52.51,-155.54,-1.12,0.6,0.38,1.326197572,1.065841252
4:10:2:4:18252,69.73,-58.73,170.44,-0.9,0.49,0.05,1.025962962,1.122366319
4:10:2:4:18348,67,-58.42,171.13,-0.82,0.5,0.03,0.960885009,1.104348514
4:10:2:4:18460,66.8,-58.13,170.93,-0.88,0.4,0.06,0.968504001,0.985117324
4:10:2:4:18556,64.43,-61.17,171,-0.93,0.38,0.18,1.020637056,0.983342022
4:10:2:4:18651,73.96,-63.4,160.71,-1.13,0.45,0.3,1.25275696,1.080632672
4:10:2:4:18764,78.15,-63.58,157.99,-0.94,0.39,0.12,1.02474387,1.099379295
4:10:2:5:18860,74.89,-61.21,161.32,-0.67,0.54,0.11,0.867525216,1.048342015
4:10:2:5:19258,76.21,-57.92,161.38,-0.86,0.4,-0.15,0.960260381,0.950843156
4:10:2:5:19353,78.54,-57.11,160.36,-0.79,0.65,0.06,1.024792662,0.95085942
4:10:2:5:19449,76.87,-55.85,162.53,-0.84,0.58,0.05,1.022007828,1.002353624
4:10:2:5:19545,76.72,-53.66,164.21,-0.77,0.66,0.03,1.014593515,1.020464668
4:10:2:5:19641,77.04,-52.02,166.34,-0.78,0.62,0.08,0.99959992,1.012067087
4:10:2:5:19753,79.2,-50.63,165.23,-0.81,0.65,0.02,1.038749248,1.017647561
4:10:2:6:19872,77.89,-50.97,166.87,-0.73,0.61,0.07,0.953886786,0.997411985
4:10:2:6:20248,78.61,-50.47,170.78,-0.71,0.63,0.13,0.958070979,0.983569004
4:10:2:6:20360,80.25,-50.52,169.53,-0.8,0.64,0.07,1.026888504,0.979615423
4:10:2:6:20456,81.61,-52.4,170.82,-0.86,0.63,0.14,1.075220908,1.02006013
4:10:2:6:20552,80.19,-53.49,174.27,-0.82,0.58,0.07,1.006826698,1.036312037
4:10:2:6:20647,79.42,-52.24,176.09,-0.8,0.6,0.05,1.00124922,1.027765608
4:10:2:6:20744,79.45,-52.73,176.69,-0.76,0.66,0.03,1.007025322,1.005033747
4:10:2:7:20872,80.54,-52.03,175.91,-0.7,0.69,0.09,0.987015704,0.998430082
4:10:2:7:21253,83.19,-54.78,176.04,-0.9,0.61,0.13,1.094988584,1.029676537
4:10:2:7:21334,81.2,-55.05,178.12,-0.81,0.54,-0.01,0.973550204,1.018518164
4:10:2:7:21430,82.9,-56.13,176.67,-0.84,0.55,0.06,1.005832988,1.024790592
4:10:2:7:21526,83.85,-56.29,176.3,-0.88,0.63,0.08,1.085218872,1.021534021
4:10:2:7:21654,80.77,-55.1,178.61,-0.75,0.62,0.05,0.974371592,1.021807817
4:10:2:7:21782,79.86,-55.51,179.59,-0.8,0.54,0.09,0.969381246,1.009657237
4:10:2:8:21861,79.32,-55.51,-179.14,-0.84,0.55,0.11,1.010049504,0.984600781
4:10:2:8:22266,81.16,-55.25,-179.33,-0.85,0.56,0.11,1.02381639,1.00108238
4:10:2:8:22346,80.87,-55.48,-179.35,-0.82,0.56,0.1,0.997997996,1.010621297
4:10:2:8:22442,80.84,-55.61,-179.94,-0.85,0.58,0.05,1.03024269,1.017352359
4:10:2:8:22554,80.47,-55.21,179.77,-0.83,0.6,0.1,1.029028668,1.019089785
4:10:2:8:22634,79.75,-54.45,-179.86,-0.81,0.6,0.12,1.015135459,1.024802272
4:10:2:8:22746,80.29,-53.76,179.68,-0.83,0.65,0.15,1.064847407,1.036337178
4:10:2:8:22827,78.97,-53.78,-179.17,-0.82,0.6,0.11,1.022007828,1.033996898
4:10:2:9:23256,77.42,-54.22,-179.26,-0.82,0.63,0.11,1.039903842,1.042253025
4:10:2:9:23368,76.44,-54.07,-178.86,-0.8,0.58,0.12,0.995389371,1.019100347
4:10:2:9:23448,78.66,-54.51,179.87,-0.9,0.58,0.12,1.077404288,1.037565834
4:10:2:9:23560,78.79,-55.17,-178.9,-0.86,0.42,0.17,0.972059669,1.014951109
4:10:2:9:23640,77.56,-56.76,-175.94,-0.91,0.42,0.21,1.024011719,1.024491892
4:10:2:9:23736,76.27,-57.03,-173.32,-0.94,0.41,0.2,1.044844486,1.013638625
4:10:2:9:23832,74.94,-56.32,-171.45,-0.83,0.55,0.13,1.004141424,1.024332543
4:10:2:10:24241,88.56,-49.11,-179.15,-0.72,0.66,0.03,0.977189848,1.008725253
4:10:2:10:24337,90.79,-46.94,177.9,-0.86,0.65,-0.06,1.079675877,1.020335717
4:10:2:10:24465,90.77,-47.95,176.81,-0.71,0.67,0.01,0.976268406,1.01104471
4:10:2:10:24544,92.88,-48.68,174.62,-0.77,0.69,0,1.033924562,1.029956282
4:10:2:10:24641,92.7,-51.74,174.71,-0.77,0.62,-0.03,0.989039939,0.999744302
4:10:2:10:24753,92.77,-54.05,175.73,-0.87,0.49,-0.01,0.998548947,1.007171149
4:10:2:11:24849,97.16,-58.51,175.11,-0.9,0.51,0.04,1.035229443,1.00760611
4:10:2:11:25228,72.08,-55.45,-170.19,-0.79,0.73,0.13,1.083466658,1.039081683
4:10:2:11:25340,77.74,-53.64,-174.63,-0.72,0.54,0.16,0.914111591,1.010935897
4:10:2:11:25452,78.42,-54.3,-177.34,-0.83,0.61,0.18,1.045657688,1.014411979
4:10:2:11:25548,70,-59.3,-169.46,-0.93,0.43,0.46,1.123120652,1.027629977
4:10:2:11:25644,66.85,-61.42,-161.56,-0.9,0.3,0.21,0.971648084,1.046808808
4:10:2:11:25755,63.78,-64.96,-154.73,-0.84,0.34,0.08,0.909725233,1.00149799
4:10:2:12:25851,63.06,-68.33,-152.15,-0.97,0.39,0,1.045466403,0.97561324
4:10:2:12:26229,38.42,-77.68,-130.42,-0.96,0.13,0.25,1.000499875,0.985230504
4:10:2:12:26342,39.08,-79.99,-131.89,-1.03,0.21,0.15,1.061838029,1.035934769
4:10:2:12:26453,36.35,-81.48,-131.37,-0.94,0.03,0.23,0.968194195,1.010177367
4:10:2:12:26549,-0.17,-81.34,-95.04,-1.1,0.03,0.18,1.115033632,1.048355285
4:10:2:12:26645,-4.57,-82.06,-91.88,-0.94,-0.01,0.18,0.95713113,1.013452986
4:10:2:12:26741,-6.56,-81.61,-87.14,-0.98,-0.03,0.23,1.007074972,1.026413245
4:10:2:12:26837,-2.61,-79.78,-88.64,-1.06,0.09,0.22,1.086324077,1.016843393
4:10:2:13:27271,43.06,-67.48,-137.67,-0.98,0.34,0.29,1.077079384,1.056826145
4:10:2:13:27336,57.21,-62.38,-153.03,-0.81,0.36,0.28,0.929569793,1.030991085
4:10:2:13:27447,54.4,-60.85,-151.13,-0.85,0.32,0.25,0.942019108,0.982889428
4:10:2:13:27543,53.43,-62.95,-151.48,-0.9,0.43,0.4,1.074662738,0.98208388
4:10:2:13:27655,52.47,-62.79,-150.4,-0.88,0.35,0.27,0.98478424,1.000488695
4:10:2:13:27751,50.83,-63.32,-150.21,-0.91,0.3,0.5,1.08078675,1.046744576
4:10:2:14:27847,49.71,-63.29,-148.84,-0.88,0.39,0.3,1.008216247,1.024595746
4:10:2:14:28263,52.16,-63.79,-150.94,-0.88,0.4,0.3,1.012126474,1.033709824
4:10:2:14:28358,51.52,-63.83,-150.64,-0.91,0.3,0.18,0.974935895,0.998426205
4:10:2:14:28439,49.96,-64.58,-150.23,-0.9,0.38,0.38,1.048236615,1.011766328
4:10:2:14:28566,48.31,-65.43,-149.12,-0.86,0.29,0.3,0.955876561,0.993016357
4:10:2:14:28663,48.54,-65.83,-147.74,-0.97,0.3,0.23,1.041057155,1.015056777
4:10:2:14:28743,48.01,-66.22,-147.4,-0.8,0.22,0.3,0.8822698,0.959734505
4:10:2:15:28855,37.6,-69.04,-137.5,-1.07,0.37,0.27,1.163915805,1.02908092
4:10:2:15:29239,50.72,-62.24,-150.76,-0.87,0.26,0.25,0.941806774,0.99599746
4:10:2:15:29335,52.61,-61.97,-151.46,-0.86,0.45,0.3,1.015923225,1.040548601
4:10:2:15:29464,55.47,-60.72,-155.39,-0.84,0.31,0.34,0.957757798,0.971829266
4:10:2:15:29543,52.13,-62.7,-153.26,-1,0.42,0.35,1.139692941,1.037791322
4:10:2:15:29655,53.17,-61.55,-154.56,-0.85,0.34,0.4,0.999049548,1.032166763
4:10:2:15:29767,55.86,-59.95,-151.81,-0.9,0.42,0.29,1.034649699,1.057797396
4:10:2:16:29863,66.58,-56.45,-154.3,-0.83,0.55,0.24,1.02420701,1.019302086
4:10:2:16:30248,58.73,-63.48,-137.9,-0.75,0.29,0.21,0.83108363,0.963313446
4:10:2:16:30345,45.69,-69.99,-125.96,-0.95,0.42,0.29,1.078424777,0.977905139
4:10:2:16:30472,31.61,-74.36,-114.4,-0.97,0.23,0.28,1.035470907,0.981659771
4:10:2:16:30552,31.87,-74.71,-113.41,-0.86,0.33,0.28,0.962756459,1.025550715
4:10:2:16:30632,40.1,-74.63,-119.82,-1.12,0.14,0.22,1.149956521,1.049394629
4:10:2:16:30728,44.3,-72.46,-120.31,-1.11,0.25,0.26,1.16713324,1.093282073
4:10:2:16:30840,37.25,-73.51,-116.02,-0.9,0.22,0.29,0.970824392,1.095971384
4:10:2:17:31274,25.66,-79.88,-106.49,-1.01,0.14,0.28,1.057402478,1.065120037
4:10:2:17:31338,26.95,-78.43,-108.66,-0.93,0.14,0.22,0.965867486,0.998031452
4:10:2:17:31450,33.49,-77.19,-116.09,-0.97,0.12,0.25,1.008860744,1.010710236
4:10:2:17:31546,42.7,-75.7,-126.63,-0.98,0.22,0.22,1.028202315,1.000976848
4:10:2:17:31642,50.35,-73.83,-133.87,-1.01,0.22,0.25,1.063484838,1.033515965
4:10:2:17:31737,56,-71.4,-139.25,-0.92,0.32,0.27,1.010791769,1.03415964
4:10:2:18:31849,62.1,-65.91,-145.4,-0.88,0.21,0.24,0.936002137,1.003426248
4:10:2:18:32259,52.55,-64.71,-134.39,-0.87,0.38,0.28,0.989797959,0.978863955
4:10:2:18:32323,48.75,-64.78,-131.5,-0.95,0.34,0.31,1.055556725,0.993785607
4:10:2:18:32451,44.37,-63.48,-127.92,-0.87,0.3,0.35,0.984581129,1.009978605
4:10:2:18:32547,42.42,-61.45,-126.93,-0.76,0.25,0.46,0.92287594,0.987671265
4:10:2:18:32675,44.35,-61.4,-128.62,-0.75,0.24,0.42,0.892468487,0.933308519
4:10:2:18:32739,47.55,-64.03,-131.65,-0.94,0.32,0.36,1.056219674,0.957188034
4:10:2:19:32851,46.1,-67.96,-131.49,-0.98,0.38,0.34,1.104717158,1.017801773
4:10:2:19:33245,44.57,-70.45,-134.61,-1.04,0.18,0.26,1.087014259,1.082650364
4:10:2:19:33356,41.92,-68.79,-130.35,-0.9,0.22,0.24,0.957078889,1.049603436
4:10:2:19:33453,38.5,-66.31,-125.01,-0.88,0.24,0.28,0.954148835,0.999413995
4:10:2:19:33548,33.59,-63.31,-118.26,-0.9,0.27,0.39,1.017349497,0.976192407
4:10:2:19:33646,30.02,-59.78,-113.04,-0.65,0.19,0.54,0.866140866,0.945879733
4:10:2:19:33741,35.01,-60.46,-116.93,-0.75,0.23,0.49,0.92493243,0.936140931
4:10:2:19:33837,40.23,-62.74,-121.98,-0.91,0.25,0.38,1.017349497,0.936140931
4:10:2:20:34259,71.53,-72.48,-154.77,-0.95,0.29,-0.04,0.994082492,0.97878814
4:10:2:20:34339,64.23,-75.13,-149.14,-0.91,0.25,0.13,0.952627944,0.988019978
4:10:2:20:34434,72.5,-76.48,-158.85,-1,0.21,0.15,1.032763284,0.993157906
4:10:2:20:34530,79.7,-75.4,-166.37,-1.06,0.24,0.12,1.093434955,1.026275394
4:10:2:20:34643,82.57,-72.15,-168.63,-0.92,0.35,0.07,0.986813052,1.03767043
4:10:2:20:34739,76.35,-73.96,-163.19,-1,0.2,0.15,1.030776406,1.037008138
4:10:2:20:34835,62.65,-76.97,-149.18,-0.83,0.08,0.05,0.83534424,0.9509779
4:10:2:21:35247,50.43,-73.93,-140.97,-0.89,0.19,0.08,0.913564448,0.926561698
4:10:2:21:35343,49.63,-72.32,-139.71,-1,0.16,0.19,1.030388276,0.926432321
4:10:2:21:35454,43.64,-69.58,-131.68,-0.95,0.3,0.26,1.029611577,0.9911881
4:10:2:21:35534,30.92,-66.15,-117.74,-0.97,0.3,0.36,1.077265056,1.04575497
4:10:2:21:35646,24,-59.64,-108.95,-0.71,0.25,0.49,0.898164796,1.001680476
4:10:2:21:35742,27.95,-55.01,-110.35,-0.76,0.19,0.64,1.011582918,0.995670923
4:10:2:22:35854,32.03,-53.66,-111.84,-0.62,0.35,0.56,0.905814551,0.938520755
4:10:2:22:36256,40.05,-66.1,-120.54,-1.01,0.3,0.36,1.11341816,1.010271876
4:10:2:22:36336,41.44,-66.63,-123.74,-0.86,0.26,0.31,0.950420959,0.989884557
4:10:2:22:36432,43.59,-67.96,-127.76,-0.88,0.21,0.26,0.941328848,1.001722656
4:10:2:22:36528,44.86,-68.46,-129.04,-0.89,0.3,0.3,0.985951317,0.959233708
4:10:2:22:36640,45.6,-68.37,-130.18,-0.94,0.26,0.32,1.026450194,0.984576786
4:10:2:22:36752,45.56,-67.86,-129.96,-0.92,0.29,0.3,1.010198,1.00753317
4:10:2:23:36848,47.1,-66.84,-130.92,-0.9,0.24,0.31,0.98168223,1.006110141
4:10:2:23:37241,43.54,-66.88,-127.03,-0.94,0.3,0.33,1.040432602,1.010770944
4:10:2:23:37353,43.05,-66.04,-127.17,-0.89,0.29,0.34,0.99589156,1.006002131
4:10:2:23:37465,42.57,-65.59,-127.36,-0.92,0.28,0.32,1.013508757,1.016610973
4:10:2:23:37545,41.25,-65.37,-126.61,-0.9,0.29,0.34,1.004838295,1.004746204
4:10:2:23:37641,39.43,-65.17,-125.74,-0.91,0.26,0.35,1.009058968,1.00913534
4:10:2:23:37736,38.86,-64.76,-125.66,-0.88,0.25,0.38,0.990605875,1.001501046
4:10:2:24:37849,38.96,-64.79,-126.63,-0.95,0.22,0.36,1.039471019,1.013045287
4:10:2:24:38253,37.09,-64.53,-125.22,-0.89,0.26,0.35,0.991060039,1.007045644
4:10:2:24:38333,37.53,-64.18,-125.82,-0.9,0.26,0.35,1.000049999,1.010193686
4:10:2:24:38446,37.69,-64.08,-126.03,-0.9,0.27,0.36,1.00623059,0.999113542
4:10:2:24:38557,37.71,-63.9,-126,-0.9,0.27,0.36,1.00623059,1.004170393
4:10:2:24:38653,37.59,-63.81,-125.94,-0.9,0.27,0.36,1.00623059,1.00623059
4:10:2:24:38733,37.42,-63.73,-125.74,-0.9,0.27,0.36,1.00623059,1.00623059
4:10:2:24:38829,36.48,-63.66,-124.97,-0.9,0.27,0.37,1.009851474,1.007437551
4:10:2:25:39235,34.65,-60.06,-122.31,-0.8,0.27,0.43,0.947523087,0.987868384
4:10:2:25:39331,33.17,-60.62,-121.32,-0.76,0.25,0.44,0.913071739,0.956815433
4:10:2:25:39443,34.71,-61.05,-123.41,-1.02,0.25,0.44,1.138639539,0.999744788
4:10:2:25:39555,31.06,-61.11,-119.63,-0.84,0.33,0.44,1.004041832,1.01858437
4:10:2:25:39635,30,-60.38,-119.62,-0.86,0.2,0.41,0.973498844,1.038726738
4:10:2:25:39731,28.32,-59.96,-118.21,-0.89,0.17,0.49,1.030097083,1.00254592
4:10:2:26:39875,26.54,-59.35,-116.97,-0.77,0.26,0.44,0.924175308,0.975923745
4:10:2:26:40237,32.68,-61.83,-123.19,-0.91,0.27,0.43,1.042065257,0.998779216
4:10:2:26:40333,32.1,-62.45,-122.27,-0.83,0.27,0.38,0.951945377,0.972728647
4:10:2:26:40445,33.65,-62.98,-124.12,-0.92,0.24,0.45,1.051903037,1.015304557
4:10:2:26:40541,33.51,-63.03,-123.88,-0.91,0.25,0.42,1.032956921,1.012268445
4:10:2:26:40653,29.84,-63.08,-120.93,-0.88,0.21,0.39,0.985190337,1.023350098
4:10:2:26:40749,29.66,-63.44,-120.63,-0.92,0.29,0.39,1.040480658,1.019542639
4:10:2:26:40829,27.22,-63.23,-119.43,-0.98,0.19,0.48,1.107655181,1.044442059
4:10:2:27:41262,42.4,-69.35,-141.12,-0.96,0.28,0.16,1.012719112,1.053618317
4:10:2:27:41343,40.92,-69.65,-142.16,-1.03,0.21,0.34,1.104807676,1.075060656
4:10:2:27:41455,34.27,-69.91,-132.99,-0.78,0.05,0.32,0.844570897,0.987365895
4:10:2:27:41534,35.42,-66.95,-133.34,-0.78,0.08,0.49,0.924608025,0.957995533
4:10:2:27:41631,29.51,-66.94,-126.3,-1.29,0.3,0.66,1.479763495,1.082980806
4:10:2:27:41743,4.08,-66.79,-103.2,-0.85,0.24,0.34,0.946414286,1.116928602
4:10:2:28:41854,35.77,-66.68,-132.76,-1,0.02,0.38,1.06995327,1.165377017
4:10:2:28:42232,29.15,-66.75,-126.62,-0.93,0.21,0.3,0.999499875,1.005289144
4:10:2:28:42328,30.31,-66.32,-127.68,-0.9,0.19,0.36,0.987775278,1.019076141
4:10:2:28:42472,28.96,-66.21,-125.93,-0.91,0.25,0.35,1.006528688,0.997934614
4:10:2:28:42552,25.86,-66.11,-124.36,-0.99,0.2,0.41,1.090045871,1.028116612
4:10:2:28:42648,34.59,-64.94,-130.78,-1.05,0.29,0.33,1.138200334,1.078258298
4:10:2:28:42760,33.12,-63.79,-129.02,-0.8,0.24,0.37,0.913509715,1.047251973
4:10:2:29:42856,30.85,-62.83,-128.98,-0.78,0.11,0.2,0.812711511,0.954807187
4:10:2:29:43257,37.96,-62.56,-133.91,-1.03,0.31,0.41,1.15112988,0.959117035
4:10:2:29:43338,33.7,-62.45,-130.74,-0.85,0.22,0.38,0.956713123,0.973518171
4:10:2:29:43450,34.76,-61.94,-130.25,-0.98,0.26,0.41,1.093663568,1.067168857
4:10:2:29:43546,29.75,-62.07,-125.9,-0.82,0.22,0.49,0.980255069,1.010210587
4:10:2:29:43641,36.64,-59.46,-133.32,-0.82,0.32,0.32,0.936589558,1.003502732
4:10:2:29:43738,37.16,-61.02,-134.61,-0.89,0.23,0.36,0.987218314,0.96802098
4:10:2:29:43833,37.32,-62.38,-134.4,-0.96,0.3,0.36,1.068269629,0.997359167
4:10:2:30:44246,36.8,-61.39,-131.93,-0.92,0.22,0.41,1.030970417,1.028819453
4:10:2:30:44341,35.69,-60.49,-131.02,-0.89,0.27,0.37,1.000949549,1.033396532
4:10:2:30:44454,40.01,-58.9,-134.09,-0.88,0.35,0.39,1.02420701,1.018708992
4:10:2:30:44565,41.51,-58.06,-135.7,-0.77,0.36,0.33,0.911811384,0.978989315
4:10:2:30:44630,48.38,-58.98,-142.79,-0.91,0.5,0.33,1.089495296,1.008504563
4:10:2:30:44758,50.56,-59.52,-145.91,-0.86,0.38,0.35,1.003244736,1.001517139
4:10:2:30:44838,48.52,-60.35,-143.59,-0.88,0.36,0.31,1.000049999,1.03093001
4:10:2:31:45251,61.46,-67.89,-147.43,-0.96,0.36,0.13,1.033489236,1.012261323
4:10:2:31:45346,72.55,-72.25,-156.64,-0.96,0.35,-0.07,1.02420701,1.019248748
4:10:2:31:45442,82.48,-77.23,-169.24,-1.05,0.27,0,1.08415866,1.047284969
4:10:2:31:45538,92.7,-78.93,-178.94,-1.01,0.18,-0.03,1.026352766,1.044906145
4:10:2:31:45651,105.2,-72.56,170.41,-0.95,0.26,-0.04,0.985748447,1.032086624
4:10:2:31:45746,107.5,-71.33,168.18,-0.99,0.32,-0.09,1.044317959,1.018806391
4:10:2:32:45842,105.39,-70.32,170.52,-0.96,0.32,-0.05,1.013163363,1.014409923
4:10:2:32:46255,68.26,-80.46,-149.5,-0.99,0.21,0.27,1.047425415,1.034968912
4:10:2:32:46351,-7.33,-79.39,-72.46,-0.99,0.07,0.18,1.008662481,1.023083753
4:10:2:32:46447,-32.06,-74.22,-49.35,-0.98,-0.22,0.18,1.020392082,1.025493326
4:10:2:32:46543,-36.04,-68.35,-44.99,-0.86,-0.2,0.35,0.94978945,0.992948004
4:10:2:32:46639,-31.05,-64.34,-49.32,-0.79,-0.17,0.47,0.934826187,0.968335906
4:10:2:32:46735,-29.46,-63.73,-50.99,-0.98,-0.3,0.42,1.10761004,0.997408559
4:10:2:32:46831,-27.64,-63.16,-51.32,-0.88,-0.21,0.41,0.993277403,1.011904543
4:10:2:33:47243,-32.43,-66.73,-42.79,-0.83,-0.24,0.35,0.932201695,1.011029713
4:10:2:33:47356,-25.55,-74.6,-48.71,-0.9,-0.12,0.33,0.966074531,0.96385121
4:10:2:33:47452,1.73,-82.82,-75.2,-0.96,0.07,0.29,1.005286029,0.967854085
4:10:2:33:47548,-100.35,-85.74,20.68,-1.25,-0.02,0.02,1.250319959,1.073893506
4:10:2:33:47644,177.27,-84,103.89,-0.9,0.19,0.18,0.937283308,1.064296432
4:10:2:33:47740,147.36,-76.47,134.11,-0.91,0.11,-0.24,0.947523087,1.045042118
4:10:2:33:47836,149.82,-73.79,129.52,-1,0.19,-0.21,1.039326705,0.974711033
4:10:2:34:48241,160.66,-70.42,119.31,-0.96,0.17,-0.31,1.023034701,1.003294831
4:10:2:34:48352,152.74,-68.51,127.59,-0.89,0.18,-0.26,0.944510455,1.002290621
4:10:2:34:48465,149.91,-69.88,128.1,-1.01,0.18,-0.11,1.031794553,0.999779903
4:10:2:34:48576,147.14,-68.47,126.77,-0.84,0.2,-0.42,0.960208311,0.978837773
4:10:2:34:48641,145.05,-66.94,127.6,-0.92,0.23,-0.39,1.025377979,1.005793614
4:10:2:34:48736,143.05,-65.75,129.47,-0.95,0.28,-0.25,1.02146953,1.00235194
4:10:2:35:48848,138.45,-64.96,133.22,-0.93,0.3,-0.45,1.075825265,1.040890924
4:10:2:35:49255,131.67,-62.46,137.33,-0.92,0.3,-0.33,1.022399139,1.039897978
4:10:2:35:49335,123.03,-63.23,143.15,-0.91,0.44,-0.24,1.038893642,1.045706015
4:10:2:35:49431,119.73,-62.45,145.83,-0.9,0.53,-0.23,1.069485858,1.04359288
4:10:2:35:49527,116.41,-63.89,148.1,-0.83,0.46,-0.36,1.014938422,1.041105974
4:10:2:35:49655,115.27,-63.91,146.51,-0.84,0.3,-0.13,0.901387819,0.995270699
4:10:2:35:49751,115.15,-62.54,144.08,-0.86,0.42,-0.14,0.967264183,0.961196808
4:10:2:36:49863,115.6,-63.34,143.8,-0.91,0.45,-0.42,1.098635517,0.98909584
4:10:2:36:50254,125.48,-63.47,145.55,-0.91,0.36,-0.26,1.012570985,1.026156895
4:10:2:36:50334,140.81,-61.26,136.85,-0.83,0.25,-0.33,0.927523585,1.012910029
4:10:2:36:50446,150.18,-59.95,131.73,-0.84,0.12,-0.41,0.942390577,0.960828382
4:10:2:36:50541,146.43,-61.79,132.86,-0.93,0.26,-0.36,1.03058236,0.966832174
4:10:2:36:50670,141.64,-63.52,135.67,-0.93,0.27,-0.38,1.040288422,1.004420453
4:10:2:36:50750,134.79,-66.13,139.81,-0.92,0.26,-0.31,1.005037313,1.025302698
4:10:2:37:50846,130.14,-66.79,143.57,-0.91,0.28,-0.28,0.992421282,1.012582339
4:10:2:37:51245,129.9,-65.32,144.57,-0.91,0.33,-0.29,1.010494928,1.002651174
4:10:2:37:51341,128.02,-64.96,146.23,-0.94,0.36,-0.26,1.039615313,1.014177174
4:10:2:37:51453,128.64,-64.86,145.32,-0.94,0.32,-0.28,1.03169763,1.027269291
4:10:2:37:51549,128.67,-64.61,145.05,-0.92,0.35,-0.28,1.023376763,1.031563236
4:10:2:37:51645,128.27,-64.23,145.36,-0.91,0.36,-0.28,1.017889974,1.024321456
4:10:2:37:51741,128.45,-64.05,145.22,-0.92,0.34,-0.28,1.02,1.020422246
4:10:2:38:51869,128.12,-63.99,145.57,-0.92,0.36,-0.28,1.026839812,1.021576596
4:10:2:38:52257,128.54,-63.98,145.86,-0.93,0.35,-0.28,1.032375901,1.026405238
4:10:2:38:52337,129.16,-64.23,145.59,-0.92,0.35,-0.28,1.023376763,1.027530825
4:10:2:38:52449,129.8,-64.3,145.26,-0.92,0.34,-0.28,1.02,1.025250888
4:10:2:38:52561,130.21,-64.23,145.11,-0.93,0.33,-0.29,1.028542658,1.023973141
4:10:2:38:52673,131,-64.22,144.73,-0.9,0.34,-0.28,1.001998004,1.016846887
4:10:2:38:52737,132.17,-64.1,144.11,-0.91,0.31,-0.3,1.007074972,1.012538545
4:10:2:39:52849,132.52,-64.09,143.68,-0.93,0.33,-0.31,1.034359705,1.014477561
4:10:2:39:53245,132.84,-63.64,143.95,-0.94,0.32,-0.26,1.026450194,1.02262829
4:10:2:39:53341,136.16,-64.35,140.18,-0.93,0.29,-0.32,1.025377979,1.028729293
4:10:2:39:53469,139.51,-64.4,137.3,-0.95,0.26,-0.34,1.041969289,1.031265821
4:10:2:39:53533,139.89,-64.86,136.4,-0.91,0.31,-0.35,1.023083574,1.030143614
4:10:2:39:53645,141.14,-64.52,135.46,-0.95,0.34,-0.4,1.085403151,1.050152005
4:10:2:39:53741,143.13,-64.94,133.45,-0.93,0.32,-0.37,1.050809212,1.053098646
4:10:2:39:53837,144.36,-64.15,131.92,-0.9,0.24,-0.34,0.99156442,1.042592261
4:10:2:40:54244,146.56,-62.87,129.76,-0.91,0.3,-0.36,1.023572176,1.021981936
4:10:2:40:54340,145.29,-61.64,131.3,-0.91,0.3,-0.41,1.042209192,1.019115263
4:10:2:40:54436,148.03,-60.65,128.98,-0.84,0.26,-0.44,0.983259884,1.016347084
4:10:2:40:54564,147.94,-59.69,129.61,-0.88,0.24,-0.41,1.000049999,1.008506358
4:10:2:40:54644,147.14,-59.32,130.16,-0.86,0.35,-0.44,1.027472627,1.00359417
4:10:2:40:54739,148.06,-59.25,129.46,-0.9,0.24,-0.47,1.043312034,1.023611553
4:10:2:40:54835,148.34,-59.35,129.23,-0.84,0.31,-0.4,0.980663041,1.017149234
4:10:2:41:55259,150.5,-59.47,129.12,-0.79,0.23,-0.41,0.919293207,0.981089427
4:10:2:41:55339,157.05,-60.01,124.94,-0.92,0.11,-0.39,1.005286029,0.968414092
4:10:2:41:55436,155.3,-60.13,126.61,-0.79,0.36,-0.43,0.968813708,0.964464314
4:10:2:41:55531,159.73,-61.15,123.45,-0.87,0.11,-0.48,0.999699955,0.991266564
4:10:2:41:55627,163.87,-62.37,120.75,-0.91,0.12,-0.47,1.031212878,0.999908847
4:10:2:41:55771,157.67,-61.38,126.64,-0.91,0.21,-0.42,1.024011719,1.018308184
4:10:2:41:55835,156.59,-61.48,127.58,-0.86,0.18,-0.44,0.98264948,1.012624692
4:10:2:42:56262,157.05,-61.39,126.06,-0.87,0.15,-0.53,1.029708697,1.012123298
4:10:2:42:56326,157.3,-61.57,126.15,-0.92,0.18,-0.45,1.039855759,1.017404645
4:10:2:42:56422,157.24,-61.62,126.15,-0.88,0.21,-0.4,0.989191589,1.019585348
4:10:2:42:56549,157.49,-61.48,125.67,-0.96,0.19,-0.51,1.103539759,1.044195702
4:10:2:42:56646,157.98,-61.36,125.43,-0.91,0.2,-0.42,1.022007828,1.038246392
4:10:2:42:56742,158.16,-61.32,125.4,-0.87,0.19,-0.41,0.980357078,1.035301555
4:10:2:43:56854,158.38,-61.29,125,-0.88,0.15,-0.47,1.008860744,1.003741883
4:10:2:43:57257,151.44,-59.77,131.6,-0.88,0.26,-0.58,1.08554134,1.02491972
4:10:2:43:57352,155.24,-62.61,128.14,-1,0.19,-0.46,1.117004924,1.070469002
4:10:2:43:57449,165.89,-66.32,120.64,-0.86,0.06,-0.03,0.862612312,1.021719525
4:10:2:43:57544,179.59,-67.37,111.13,-1,-0.16,-0.45,1.108196733,1.029271323
4:10:2:43:57641,-176.23,-66.36,108.74,-0.99,0.09,-0.42,1.079166345,1.016658463
4:10:2:43:57737,-166.33,-66.21,102.94,-0.91,-0.17,-0.32,0.979489663,1.05561758
4:10:2:43:57833,-168.45,-66.71,104.14,-0.95,-0.07,-0.37,1.021909976,1.026855328
4:10:2:44:58249,-171.62,-66.96,103.52,-0.95,-0.03,-0.4,1.031212878,1.010870839
4:10:2:44:58344,-177.15,-67.83,107.36,-0.91,0.05,-0.35,0.976268406,1.009797087
4:10:2:44:58456,-179.26,-67.46,108.92,-0.91,0.01,-0.34,0.971493695,0.99299166
4:10:2:44:58537,178.66,-67.56,109.64,-0.95,-0.01,-0.38,1.023230179,0.99033076
4:10:2:44:58648,175.25,-67.65,111.88,-1,0.02,-0.44,1.09270307,1.029142315
4:10:2:44:58776,174.84,-67.53,111.92,-0.99,0.03,-0.44,1.083789647,1.066574299
4:10:2:44:58824,-178.43,-68.19,106.78,-0.89,-0.02,-0.38,0.967935948,1.048142889
4:10:2:45:59244,-155.44,-70.3,91.61,-0.94,-0.07,-0.27,0.980510071,1.010745222
4:10:2:45:59356,-158,-70.59,93.18,-0.9,-0.11,-0.32,0.96150923,0.969985083
4:10:2:45:59452,-156.23,-69.9,92.42,-0.91,-0.15,-0.42,1.013410085,0.985143129
4:10:2:45:59548,-161.71,-70.56,95.28,-1.09,-0.08,-0.17,1.106074139,1.026997818
4:10:2:45:59644,-176.31,-72.65,106.59,-1,0,-0.25,1.030776406,1.050086877
4:10:2:45:59772,150.18,-76.26,131.19,-1.08,0.24,-0.25,1.134239834,1.09036346
4:10:2:45:59835,131.81,-77.91,144.96,-1.04,0.11,-0.01,1.045848937,1.070288392
4:10:2:46:60246,144.68,-83.01,128.3,-1.02,0.01,-0.15,1.031018914,1.070369228
4:10:2:46:60343,141.2,-84.16,131.48,-1.02,0.03,-0.07,1.022839186,1.033235679
4:10:2:46:60438,119.65,-83.45,152.52,-0.98,0.1,-0.05,0.986356933,1.013405011
4:10:2:46:60534,107.02,-81.45,164.01,-0.93,0.14,-0.01,0.940531764,0.983242628
4:10:2:46:60630,108.48,-79.6,162.11,-0.98,0.18,-0.13,1.004838295,0.977242331
4:10:2:46:60726,108.1,-77.91,162.26,-0.94,0.13,-0.01,0.948999473,0.964789844
4:10:2:47:60855,119.6,-73.76,153.89,-0.85,0.14,-0.05,0.86290208,0.938913283
4:10:2:47:61227,119.67,-54.95,152.13,-0.76,0.47,-0.31,0.945832966,0.91924484
4:10:2:47:61352,113.9,-49.84,156.48,-0.8,0.66,-0.28,1.07424392,0.960992989
4:10:2:47:61432,103.55,-45.81,161.74,-0.66,0.6,-0.15,0.904488806,0.974855231
4:10:2:47:61528,97.92,-39.35,161.06,-0.62,0.61,-0.11,0.876698352,0.951810359
4:10:2:47:61640,100.46,-39.42,161.76,-0.73,0.84,-0.24,1.138463877,0.973217012
4:10:2:47:61736,97.07,-37.84,163.69,-0.68,0.84,-0.04,1.081480467,1.032214232
4:10:2:47:61832,95.1,-35.03,165.31,-0.49,0.76,-0.23,0.933059484,1.051001276
4:10:2:48:62246,100.87,-27.21,158.27,-0.49,0.92,-0.21,1.06329676,1.02594557
4:10:2:48:62326,98.61,-29.83,160.85,-0.57,0.83,-0.07,1.009306693,1.001887645
4:10:2:48:62438,95.45,-31.82,166.05,-0.54,0.73,-0.08,0.911537163,0.994713539
4:10:2:48:62550,92.73,-34.32,172.05,-0.54,0.81,-0.06,0.975346092,0.965396649
4:10:2:48:62645,90.64,-35.03,177.03,-0.47,0.79,-0.04,0.920108689,0.935663982
4:10:2:48:62742,91.07,-36.67,178.97,-0.54,0.76,-0.07,0.934933153,0.943462645
4:10:2:48:62838,92.1,-37.36,179.86,-0.63,0.83,-0.05,1.043216181,0.966086008
4:10:2:49:63240,93.27,-36.76,-179.9,-0.59,0.83,-0.07,1.020735029,0.999628121
4:10:2:49:63336,94.64,-36.24,179.12,-0.59,0.88,0.06,1.06117859,1.041709933
4:10:2:49:63448,100.75,-27.86,173.34,-0.46,0.93,-0.19,1.054798559,1.045570726
4:10:2:49:63527,102.83,-24.87,168.05,-0.5,0.94,-0.29,1.103494449,1.073157199
4:10:2:49:63656,101.12,-27.47,165.46,-0.47,0.93,-0.13,1.050095234,1.069462747
4:10:2:49:63736,98.81,-27.64,164.6,-0.48,0.88,-0.12,1.009554357,1.054381347
4:10:2:49:63832,96.35,-26.3,164.58,-0.49,0.83,0,0.963846461,1.007832017
4:10:2:50:64253,94.34,-20.53,169.53,-0.34,1.09,-0.22,1.162798349,1.045399722
4:10:2:50:64350,93.63,-20.24,169.18,-0.36,0.97,0.02,1.034842983,1.053829264
4:10:2:50:64446,94.17,-19.17,169.56,-0.34,0.89,-0.07,0.955301,1.050980777
4:10:2:50:64541,94.08,-20.59,169.91,-0.37,1,-0.07,1.06855042,1.019564801
4:10:2:50:64638,92.35,-22.11,170.56,-0.4,0.89,-0.04,0.97657565,1.000142357
4:10:2:50:64749,90.34,-22.65,172.25,-0.29,0.84,-0.07,0.891403388,0.978843153
4:10:2:51:64845,89.28,-24.07,172.29,-0.34,0.8,0,0.869252552,0.91241053
4:10:2:51:65250,81.61,-32.61,177.39,-0.5,0.83,0.08,0.972265396,0.910973779
4:10:2:51:65362,80.56,-32.57,177.24,-0.52,0.76,0.1,0.926282894,0.922600281
4:10:2:51:65442,81.04,-32.41,175.58,-0.48,0.78,0.18,0.933380951,0.943976414
4:10:2:51:65538,84.09,-32.34,171.34,-0.69,1.05,0.07,1.258371964,1.03934527
4:10:2:51:65634,83.83,-31.7,170.53,-0.43,0.87,0.09,0.974628134,1.05546035
4:10:2:51:65746,83.46,-34.1,170.88,-0.59,1.04,0.1,1.199874993,1.144291697
4:10:2:52:65842,85.94,-32.66,170.52,-0.55,0.88,0.08,1.040816987,1.071773371
4:10:2:52:66245,86.19,-27.43,170.91,-0.38,0.87,0.1,0.954620343,1.065104108
4:10:2:52:66341,84.68,-28.03,172.36,-0.39,0.86,0.06,0.946202938,0.980546756
4:10:2:52:66437,84.26,-30.15,172.44,-0.53,0.96,0.05,1.09772492,0.999516067
4:10:2:52:66533,83.46,-29.78,172.35,-0.63,0.95,0.12,1.14621115,1.063379669
4:10:2:52:66629,82.38,-29.75,173.37,-0.54,0.93,0.12,1.082081328,1.108672466
4:10:2:52:66725,81.53,-29.19,173.44,-0.51,0.83,0.12,0.981529419,1.069940632
4:10:2:52:66837,81.04,-28.29,172.52,-0.49,0.83,0.17,0.978723659,1.014111468
4:10:2:53:67261,80.72,-30.16,171.65,-0.56,0.93,0.13,1.093343496,1.017865524
4:10:2:53:67342,78.49,-31.58,172.37,-0.55,0.91,0.2,1.081942697,1.051336617
4:10:2:53:67453,77.47,-31.31,172.86,-0.51,0.82,0.21,0.988230742,1.054505645
4:10:2:53:67550,76.79,-31.6,173.98,-0.58,0.87,0.18,1.060990104,1.043721181
4:10:2:53:67630,79.72,-29.38,174.39,-0.54,0.88,0.17,1.046374694,1.03186518
4:10:2:53:67726,81.83,-27.42,174.18,-0.43,0.83,0.17,0.950105257,1.019156685
4:10:2:53:67838,86.56,-27.26,173.88,-0.37,0.78,-0.06,0.865390085,0.953956679
4:10:2:54:68253,96.56,-39.72,167.09,-0.84,0.66,-0.09,1.072054103,0.962516482
4:10:2:54:68333,101.56,-44.76,163.51,-0.85,0.88,-0.1,1.227558553,1.055000914
4:10:2:54:68429,101.9,-50.55,164.74,-0.69,0.5,0.07,0.85498538,1.051532679
4:10:2:54:68557,112.08,-71.29,157.58,-1,0.28,-0.14,1.047854952,1.043466295
4:10:2:54:68637,159.91,-73.69,105.9,-1,0.05,-0.2,1.021028893,0.974623075
4:10:2:54:68749,-177.74,-66.01,86.34,-0.85,0.03,-0.34,0.915969432,0.994951092
4:10:2:55:68845,-159.45,-70.98,68.6,-0.97,0.06,-0.43,1.062732328,0.999910217
4:10:2:55:69246,-148.19,-59.81,66.22,-0.85,-0.3,-0.4,0.986154146,0.988285302
4:10:2:55:69342,-148.87,-59.27,66.41,-0.95,-0.23,-0.44,1.071914176,1.040266883
4:10:2:55:69438,-147.81,-56.71,66.21,-0.84,-0.3,-0.47,1.008216247,1.022094856
4:10:2:55:69550,-145.66,-54.16,65.59,-0.76,-0.36,-0.54,0.99939982,1.026510081
4:10:2:55:69646,-145.73,-53.46,65.95,-0.83,-0.28,-0.5,1.008612909,1.005409658
4:10:2:55:69742,-144.11,-53.65,64.41,-0.84,-0.34,-0.48,1.025475499,1.011162743
4:10:2:55:69838,-142.28,-53.89,62.6,-0.77,-0.36,-0.43,0.952575456,0.995554622
4:10:2:56:70253,-140.85,-56.2,61.09,-0.81,-0.35,-0.44,0.986002028,0.988017661
4:10:2:56:70349,-140.5,-56.43,60.27,-0.83,-0.35,-0.39,0.981580358,0.973385948
4:10:2:56:70445,-138.76,-56.54,57.61,-0.86,-0.37,-0.52,1.070934172,1.012838853
4:10:2:56:70541,-137.74,-56.79,57.61,-0.9,-0.35,-0.47,1.073964618,1.042159716
4:10:2:56:70636,-135.31,-57,55.24,-0.91,-0.35,-0.41,1.057686154,1.067528314
4:10:2:56:70749,-135.05,-55.41,53.51,-0.9,-0.37,-0.51,1.098635517,1.076762096
4:10:2:56:70828,-137.84,-58.9,51.35,-0.76,-0.42,-0.26,0.906421535,1.020914402
4:10:2:57:71251,-140.09,-66.13,47.77,-0.92,-0.16,-0.24,0.964157663,0.989738239
4:10:2:57:71347,-131.4,-57.45,39.3,-0.73,-0.44,-0.43,0.954672719,0.941750639
4:10:2:57:71444,-134.33,-46.58,42.6,-0.53,-0.43,-0.71,0.984835012,0.967888465
4:10:2:57:71555,-134.16,-41.78,43.65,-0.64,-0.53,-0.68,1.07373181,1.00441318
4:10:2:57:71651,-124.21,-39.09,38.18,-0.72,-1.04,0,1.264911064,1.107825962
4:10:2:57:71748,-119.7,-38.84,38.42,-0.75,-0.73,-0.35,1.103585067,1.147409314
4:10:2:58:71844,-120.43,-39.76,39.31,-0.42,-0.04,-0.96,1.048618138,1.13903809
4:10:2:58:72247,-113.79,-34.04,41.54,-0.52,-0.75,-0.4,0.996443676,1.049548961
4:10:2:58:72328,-113.04,-33.61,43.61,-0.52,-0.79,-0.3,0.992219734,1.012427183
4:10:2:58:72455,-113.31,-32.53,42.04,-0.51,-0.77,-0.32,0.977445651,0.98870302
4:10:2:58:72551,-118.29,-30.46,41.46,-0.48,-0.71,-0.47,0.977445651,0.982370345
4:10:2:58:72646,-119.64,-25.11,42.07,-0.39,-0.79,-0.45,0.989292677,0.981394659
4:10:2:58:72743,-114.7,-21,38.58,-0.3,-0.87,-0.37,0.991866927,0.986201751
4:10:2:58:72838,-112,-18.88,40.59,-0.27,-0.86,-0.36,0.97061836,0.983925988
4:10:2:59:73257,-108.25,-20.44,38.09,-0.3,-0.85,-0.33,0.959895828,0.974127038
4:10:2:59:73338,-108.07,-20.31,37.65,-0.34,-0.89,-0.37,1.02205675,0.984190312
4:10:2:59:73434,-107.69,-19.94,38.01,-0.31,-0.91,-0.29,1.004141424,0.995364667
4:10:2:59:73546,-108.31,-19.73,38.91,-0.29,-0.88,-0.35,0.990454441,1.005550872
4:10:2:59:73658,-113.06,-19.12,41.48,-0.25,-0.86,-0.45,1.002297361,0.998964409
4:10:2:59:73770,-113.51,-19.19,41.78,-0.3,-0.94,-0.41,1.068503627,1.020418476
4:10:3:0:73849,-109.91,-21.24,38.5,-0.36,-0.86,-0.37,1.003045363,1.02461545
4:10:3:0:74250,-103.69,-22.43,39.43,-0.36,-0.91,-0.3,1.023572176,1.031707055
4:10:3:0:74347,-104.05,-28.14,40.1,-0.44,-0.83,-0.24,0.969587541,0.998735027
4:10:3:0:74442,-102.89,-32.55,39.61,-0.5,-0.86,-0.22,1.01882285,1.003994189
4:10:3:0:74538,-99.89,-37.38,36.43,-0.6,-0.79,-0.18,1.008216247,0.998875546
4:10:3:0:74634,-96.91,-43.47,32.15,-0.64,-0.72,-0.06,0.965194281,0.997411126
4:10:3:0:74746,-95.87,-48.78,29.33,-0.73,-0.58,-0.09,0.936696322,0.970035617
4:10:3:0:74827,-91.65,-52.07,23.53,-0.86,-0.64,0.08,1.074988372,0.992292992
4:10:3:1:75346,-71.73,-51.22,-5.78,-0.76,-0.62,0.25,1.012175874,1.007953523
4:10:3:1:75442,-70.06,-47.87,-9.76,-0.71,-0.64,0.26,0.990605875,1.025923374
4:10:3:1:75538,-68.03,-46.41,-13.26,-0.65,-0.63,0.33,0.963483264,0.988755004
4:10:3:1:75666,-65.91,-45.76,-16.97,-0.69,-0.64,0.37,1.011236866,0.988442002
4:10:3:1:75746,-63.61,-45.2,-20.13,-0.71,-0.68,0.38,1.05399241,1.009570847
4:10:3:2:75842,-62.69,-45.14,-23.02,-0.7,-0.62,0.43,1.029223008,1.031484095
4:10:3:2:75937,-61.68,-44.63,-25.12,-0.66,-0.67,0.38,1.014347081,1.032520833
4:10:3:2:76238,-60.06,-45.7,-28.42,-0.66,-0.62,0.43,1.002447006,1.015339032
4:10:3:2:76334,-60.28,-46.89,-28.06,-0.7,-0.59,0.45,1.020098035,1.012297374
4:10:3:2:76446,-60.36,-48.21,-28.34,-0.78,-0.53,0.4,1.024353455,1.015632832
4:10:3:2:76558,-62.15,-51.37,-27.07,-0.69,-0.54,0.36,0.947259204,0.997236898
4:10:3:2:76638,-63.54,-56.49,-25.56,-0.77,-0.57,0.43,1.050095234,1.007235964
4:10:3:2:76733,-64.18,-59.27,-25.42,-0.87,-0.46,0.32,1.034842983,1.010732474
4:10:3:3:76862,-67.26,-62.52,-23.54,-0.9,-0.4,0.29,1.026693723,1.037210647
4:10:3:3:77247,-96.54,-61.93,7.73,-0.86,-0.49,0.04,0.990605875,1.01738086
4:10:3:3:77358,-100.63,-59.67,11.65,-0.87,-0.61,-0.03,1.062967544,1.026755714
4:10:3:3:77439,-109.18,-57.31,20.22,-0.89,-0.52,-0.16,1.043120319,1.032231246
4:10:3:3:77534,-114.45,-54.61,25.91,-0.88,-0.51,-0.21,1.038556691,1.048214851
4:10:3:3:77646,-116.58,-49.46,31.02,-0.76,-0.54,-0.25,0.965246083,1.015641031
4:10:3:3:77774,-120.06,-42.95,39.47,-0.71,-0.59,-0.43,1.018381068,1.007394614
4:10:3:3:77838,-121.71,-33.79,48.62,-0.59,-0.76,-0.49,1.079722186,1.021116446
4:10:3:4:78258,-108.19,-26.65,57.21,-0.42,-0.86,-0.28,0.997196069,1.031766441
4:10:3:4:78338,-109.99,-30.72,53.54,-0.5,-0.81,-0.35,1.014199191,1.030372482
4:10:3:4:78435,-110.7,-32.19,53.12,-0.52,-0.76,-0.38,0.996192752,1.002529338
4:10:3:4:78530,-109.57,-32.62,53.64,-0.54,-0.79,-0.31,1.005882697,1.00542488
4:10:3:4:78625,-108.13,-33.05,50.98,-0.53,-0.76,-0.3,0.973909647,0.991995032
4:10:3:4:78754,-105.33,-31.72,48.03,-0.52,-0.82,-0.24,1.00019998,0.993330775
4:10:3:5:78850,-102.28,-29.85,45.73,-0.46,-0.88,-0.2,1.012916581,0.995675403
4:10:3:5:79260,-92.82,-27.7,42.29,-0.49,-0.77,-0.03,0.913181253,0.975432605
4:10:3:5:79340,-90.43,-28.29,38.4,-0.54,-0.85,0.06,1.008811182,0.978303005
4:10:3:5:79468,-91.79,-26.25,37.27,-0.36,-0.89,-0.01,0.960104161,0.960698865
4:10:3:5:79532,-92.18,-22.28,35.11,-0.3,-0.89,0,0.939201789,0.969372377
4:10:3:5:79660,-86.19,-20.82,37.75,-0.48,-0.93,0.07,1.04890419,0.982736713
4:10:3:5:79723,-80.73,-16.03,41.16,-0.33,-0.98,0.16,1.046374694,1.011493558
4:10:3:5:79835,-79.4,-10.13,49.66,-0.19,-0.89,0.19,0.929677363,1.008318749
4:10:3:6:80243,-49.17,8.16,76.38,0.16,-0.59,0.86,1.055130324,1.010394127
4:10:3:6:80339,-43.95,3.14,87.11,0.21,-0.52,0.83,1.001698557,0.995502082
4:10:3:6:80451,-41.65,-8.44,93.07,0.01,-0.52,1.01,1.136045774,1.064291552
4:10:3:6:80563,-45.07,-16.92,92.18,-0.17,-0.4,1,1.090366911,1.076037081
4:10:3:6:80643,-40.11,-15.26,88.12,0.15,-0.32,1.01,1.070046728,1.098819804
4:10:3:6:80739,-36.58,-20.46,87.35,-0.32,-0.28,0.88,0.977343338,1.045918992
4:10:3:6:80835,-33.46,-21.38,84.42,0.05,-0.29,0.86,0.908955444,0.985448503
4:10:3:7:81235,-40.47,-22.86,88.48,-0.19,-0.35,0.87,0.956817642,0.947705475
4:10:3:7:81331,-37.57,-22.58,89.08,-0.18,-0.29,0.9,0.9625487,0.942773929
4:10:3:7:81443,-35.04,-24.78,90,-0.23,-0.29,0.86,0.936269192,0.951878511
4:10:3:7:81539,-36.74,-26.5,92.31,-0.28,-0.31,0.87,0.965090669,0.954636187
4:10:3:7:81635,-37.44,-26.75,94.14,-0.29,-0.3,0.89,0.982954729,0.961438197
4:10:3:7:81731,-37.88,-27.22,95.71,-0.3,-0.32,0.91,1.010198,0.986081133
4:10:3:8:81843,-39.41,-27.01,98,-0.3,-0.37,0.87,0.991866927,0.995006552
4:10:3:8:82282,-39.63,-31.92,102.22,-0.37,-0.18,0.83,0.926390846,0.976151924
4:10:3:8:82346,-37.81,-38.65,98.49,-0.18,-0.47,0.78,0.928277976,0.948845249
4:10:3:8:82442,-44.77,-36.86,105.72,-0.52,-0.27,0.9,1.07391806,0.976195627
4:10:3:8:82538,-45.99,-38.95,107.87,-0.42,-0.32,0.68,0.86092973,0.954375255
4:10:3:8:82650,-48.81,-46.57,113.67,-0.74,-0.13,0.81,1.104807676,1.013218489
4:10:3:8:82762,-44.92,-47.95,112.28,-0.67,-0.26,0.7,1.003244736,0.989660714
4:10:3:9:82842,-40.96,-47.39,109.66,-0.63,-0.22,0.72,0.98168223,1.029911547
4:10:3:9:83244,-40.89,-47.61,109.42,-0.69,-0.28,0.67,1.001698557,0.995541841
4:10:3:9:83340,-41.32,-47.37,109.97,-0.66,-0.29,0.66,0.977394496,0.986925094
4:10:3:9:83436,-40.89,-48.45,109.61,-0.68,-0.28,0.66,0.988129546,0.9890742
4:10:3:9:83533,-40.98,-49.48,109.7,-0.67,-0.31,0.6,0.95131488,0.97227964
4:10:3:9:83629,-42.35,-49.51,111.66,-0.76,-0.31,0.66,1.053233118,0.997559181
4:10:3:9:83740,-42.97,-48.44,112.83,-0.74,-0.35,0.69,1.070607304,1.025051767
4:10:3:10:83852,-41.81,-47.4,111.97,-0.6,-0.3,0.53,0.854926897,0.99292244
4:10:3:10:84234,-45.14,-44.22,117.66,-0.6,-0.4,0.68,0.991160935,0.972231712
4:10:3:10:84328,-44.88,-46.34,118.24,-0.68,-0.39,0.62,0.999449849,0.948512561
4:10:3:10:84440,-45.7,-47.24,119.31,-0.67,-0.39,0.68,1.031212878,1.007274554
4:10:3:10:84552,-49.13,-48.14,122.31,-0.73,-0.24,0.65,1.006479011,1.012380579
4:10:3:10:84632,-51.06,-48.79,123.67,-0.74,-0.34,0.57,0.994032193,1.010574694
4:10:3:10:84760,-50.91,-50.65,123.45,-0.71,-0.36,0.56,0.973293378,0.991268194
4:10:3:10:84824,-51.18,-52.03,123.26,-0.91,-0.22,0.54,1.08078675,1.01603744
4:10:3:11:85266,-56.6,-52.32,123.26,-0.73,-0.37,0.46,0.938829058,0.997636396
4:10:3:11:85346,-59.98,-53.03,123.85,-0.87,-0.46,0.46,1.086324077,1.035313295
4:10:3:11:85443,-59.61,-50.05,122.47,-0.77,-0.38,0.4,0.947259204,0.990804113
4:10:3:11:85555,-57.84,-48.01,119.86,-0.95,-0.13,0.5,1.081387997,1.038323759
4:10:3:11:85635,-54.89,-46.19,118.52,-0.81,-0.24,0.47,0.966747123,0.998464775
4:10:3:11:85731,-51.5,-42.97,116.17,-0.66,-0.56,0.44,0.970978888,1.006371336
4:10:3:12:85859,-49.92,-40.59,116.83,-0.58,-0.3,0.67,0.93557469,0.9577669
4:10:3:12:86238,-47.85,-43.52,114.45,-0.5,-0.44,0.64,0.923688259,0.943413945
4:10:3:12:86350,-48.35,-43.69,115.78,-0.74,-0.23,0.63,0.998699154,0.952654034
4:10:3:12:86446,-48.19,-43.64,115.24,-0.58,-0.36,0.64,0.935735005,0.952707473
4:10:3:12:86541,-49.27,-44.79,114.43,-0.7,-0.49,0.61,1.049857133,0.994763764
4:10:3:12:86669,-49.36,-43.2,114.32,-0.62,-0.42,0.63,0.978621479,0.988071206
4:10:3:12:86733,-47.45,-44.07,114.01,-0.62,-0.45,0.59,0.96695398,0.998477531
4:10:3:13:86846,-47.1,-44.18,114.95,-0.67,-0.39,0.6,0.980306075,0.975293845
4:10:3:13:87247,-50.8,-51.24,119.1,-0.91,-0.19,0.7,1.163700993,1.036987016
4:10:3:13:87343,-47.64,-48.88,115.12,-0.71,-0.28,0.51,0.917932459,1.020646509
4:10:3:13:87471,-46.56,-47.47,114.28,-0.68,-0.27,0.48,0.875042856,0.985558769
4:10:3:13:87551,-47.77,-46,114.85,-0.75,-0.38,0.51,0.983361582,0.925445632
4:10:3:13:87647,-49.36,-44.35,116.28,-0.71,-0.23,0.54,0.921194876,0.926533105
4:10:3:13:87743,-50.56,-46.76,117.1,-0.6,-0.36,0.52,0.871779789,0.925445415
4:10:3:14:87855,-51.1,-48.78,117.7,-0.8,-0.36,0.56,1.040768947,0.944581204
4:10:3:14:88244,-60.64,-55.11,124.64,-0.82,-0.43,0.41,1.012620363,0.975056366
4:10:3:14:88341,-64.07,-55.12,125.97,-0.9,-0.29,0.37,1.015381702,1.02292367
4:10:3:14:88437,-65.42,-53.85,125.86,-0.82,-0.38,0.43,1.000849639,1.009617235
4:10:3:14:88549,-63.17,-50.77,123.32,-0.79,-0.38,0.35,0.943927963,0.986719768
4:10:3:14:88644,-60.87,-49.74,120.29,-0.77,-0.48,0.42,0.999849989,0.98154253
4:10:3:14:88772,-60.03,-48.98,119.15,-0.77,-0.54,0.4,1.022007828,0.98859526
4:10:3:15:88881,-58.29,-49.69,117.09,-0.78,-0.47,0.4,0.994635612,1.005497809
4:10:3:15:89260,-60.27,-50.39,118.28,-0.81,-0.47,0.39,1.014445661,1.010363034
4:10:3:15:89340,-60.77,-51.62,119.12,-0.83,-0.46,0.33,1.004689007,1.004590093
4:10:3:15:89468,-62.2,-51.65,120.18,-0.81,-0.51,0.4,1.037400598,1.018845089
4:10:3:15:89548,-62.45,-50.42,119.99,-0.8,-0.51,0.38,1.022007828,1.021365811
4:10:3:15:89644,-63.73,-50.09,120.72,-0.72,-0.5,0.34,0.940212742,0.999873722
4:10:3:15:89739,-67.17,-50.36,123.24,-0.83,-0.54,0.37,1.057071426,1.006430665
4:10:3:16:89851,-67.18,-50.26,122.75,-0.77,-0.51,0.31,0.974217635,0.990500601
4:10:3:16:90261,-73.14,-51.3,123.04,-0.78,-0.79,0.3,1.15,1.060429687
4:10:3:16:90357,-70.22,-51.81,116.01,-0.68,-0.82,0.25,1.094212045,1.072809893
4:10:3:16:90438,-67.08,-50.11,107.09,-0.85,-0.54,0.22,1.030776406,1.091662817
4:10:3:16:90550,-65.54,-48.43,100.63,-0.74,-0.58,0.26,0.975499872,1.033496108
4:10:3:16:90629,-66.6,-46.88,98.12,-0.75,-0.62,0.4,1.052093152,1.019456477
4:10:3:16:90725,-67.13,-46.03,94.86,-0.72,-0.67,0.29,1.025377979,1.017657001
4:10:3:17:90869,-65.01,-47.01,91.88,-0.78,-0.53,0.35,1.005882697,1.027784609
4:10:3:17:91252,-53.95,-47.9,76.85,-0.85,-0.43,0.55,1.099954545,1.043738407
4:10:3:17:91333,-59.86,-52.39,78.74,-0.83,-0.39,0.42,1.008662481,1.038166574
4:10:3:17:91428,-60.66,-42.69,72.57,-0.66,-0.46,0.55,0.974525526,1.027714184
4:10:3:17:91556,-59.63,-40.51,70.83,-0.56,-0.43,0.51,0.870976464,0.951388157
4:10:3:17:91653,-57.53,-45.38,73.85,-0.83,-0.41,0.53,1.066723957,0.970741982
4:10:3:17:91749,-56.89,-44.05,74.49,-0.48,-0.19,0.43,0.671863081,0.869854501
4:10:3:18:91845,-57.28,-40.75,76.86,-0.78,-0.44,0.45,1.002247474,0.913611504
4:10:3:18:92260,-56.62,-33.44,76.18,-0.53,-0.56,0.67,1.02146953,0.898526695
4:10:3:18:92323,-55.58,-33.88,74.45,-0.59,-0.49,0.58,0.96156123,0.995092745
4:10:3:18:92468,-55.29,-33.77,71.94,-0.5,-0.47,0.55,0.879431635,0.954154132
4:10:3:18:92596,-56.57,-34.84,69.46,-0.59,-0.51,0.6,0.983971544,0.941654803
4:10:3:18:92644,-56.39,-36.42,64.46,-0.62,-0.55,0.6,1.023181313,0.962194831
4:10:3:18:92739,-56.31,-38.07,59.16,-0.64,-0.52,0.56,0.996794864,1.001315907
4:10:3:19:92877,-56.95,-38.85,54.23,-0.63,-0.54,0.58,1.012373449,1.010783209
4:10:3:19:93259,-62.89,-46.11,44.32,-0.7,-0.53,0.51,1.015381702,1.008183338
4:10:3:19:93338,-64.41,-45.26,44.26,-0.7,-0.56,0.49,1.021616366,1.016457172
4:10:3:19:93434,-66.18,-45.88,45.9,-0.72,-0.58,0.46,1.032666451,1.023221506
4:10:3:19:93530,-65.89,-45.39,46.03,-0.66,-0.46,0.39,0.894035793,0.98277287
4:10:3:19:93658,-69.66,-42.8,47.38,-0.75,-0.61,0.46,1.070607304,0.999103183
4:10:3:19:93738,-71.68,-44.66,47.85,-0.69,-0.67,0.49,1.07939798,1.014680359
4:10:3:20:93851,-70.84,-43.65,47.15,-0.68,-0.58,0.43,0.991816515,1.047273933
4:10:3:20:94250,-64.75,-45.57,41.83,-0.74,-0.52,0.45,1.010198,1.027137499
4:10:3:20:94346,-64.65,-45.5,41.04,-0.71,-0.54,0.46,1.003643363,1.00188596
4:10:3:20:94442,-64.26,-44.99,39.97,-0.72,-0.53,0.46,1.005435229,1.006425531
4:10:3:20:94538,-63.86,-45.15,39.19,-0.7,-0.53,0.45,0.986610359,0.998562984
4:10:3:20:94650,-63.56,-45.02,38.4,-0.76,-0.52,0.46,1.029368739,1.007138109
4:10:3:20:94746,-64.69,-44.01,37.88,-0.66,-0.56,0.49,0.994635612,1.003538236
4:10:3:21:94858,-64.37,-43.6,37.38,-0.65,-0.55,0.46,0.967780967,0.997261772
4:10:3:21:95227,-66.16,-42.46,35.4,-0.69,-0.54,0.43,0.976012295,0.979476291
4:10:3:21:95355,-66.2,-42.93,35.14,-0.68,-0.55,0.44,0.979030132,0.974274465
4:10:3:21:95435,-66.46,-43.2,34.7,-0.7,-0.55,0.44,0.993025679,0.982689369
4:10:3:21:95531,-66.43,-43.25,33.7,-0.68,-0.59,0.44,1.002047903,0.991367905
4:10:3:21:95643,-66.56,-43.25,33.11,-0.69,-0.59,0.42,1.000299955,0.998457846
4:10:3:21:95755,-66.85,-43.26,32.78,-0.69,-0.59,0.42,1.000299955,1.000882604
4:10:3:22:95851,-67.11,-43.15,32.5,-0.69,-0.6,0.42,1.00623059,1.002276833
4:10:3:22:96260,-68.14,-44.14,31.51,-0.75,-0.6,0.41,1.044317959,1.016949501
4:10:3:22:96341,-68.82,-47.31,29.54,-0.76,-0.56,0.35,1.006826698,1.019125082
4:10:3:22:96452,-73.91,-46.71,28.38,-0.74,-0.59,0.3,0.992824254,1.014656304
4:10:3:22:96549,-81.97,-45.84,29.24,-0.75,-0.84,0.3,1.165375476,1.055008809
4:10:3:22:96629,-85.72,-47.19,30.52,-0.65,-0.7,0.22,0.980255069,1.0461516
4:10:3:22:96740,-91.9,-46.87,35.61,-0.68,-0.55,0.18,0.892916569,1.012849038
4:10:3:23:96852,-96.24,-44.8,38.99,-0.72,-0.68,0.05,0.991614845,0.954928828
4:10:3:23:97242,-105.45,-34.38,39.21,-0.59,-0.82,-0.13,1.01852835,0.967686588
4:10:3:23:97354,-102.17,-34.63,34.85,-0.53,-0.81,-0.16,0.981121807,0.997088334
4:10:3:23:97465,-99.57,-35.13,30.21,-0.55,-0.77,-0.03,0.946731218,0.982127125
4:10:3:23:97562,-97.09,-39.16,26.34,-0.64,-0.85,0.02,1.064189833,0.997347619
4:10:3:23:97658,-91.96,-42.77,21.62,-0.76,-0.73,0.03,1.054229577,1.021716876
4:10:3:23:97738,-86.95,-50.08,18.42,-0.86,-0.65,0.17,1.091329464,1.069916291
4:10:3:24:97850,-80.34,-55.27,14.97,-0.79,-0.46,0.25,0.94773414,1.031097727
4:10:3:24:98232,-84.7,-57.05,32.29,-0.86,-0.45,0.2,0.991009586,1.010024397
4:10:3:24:98328,-89.45,-57.72,46.18,-0.78,-0.47,0.11,0.917278584,0.952007437
4:10:3:24:98488,-95.17,-56.47,57.85,-0.8,-0.52,-0.03,0.954620343,0.954302838
4:10:3:24:98536,-94.72,-56.69,58.65,-0.91,-0.5,-0.01,1.038364098,0.970087675
4:10:3:24:98648,-95.18,-56.26,59.76,-0.88,-0.51,-0.01,1.017152889,1.00337911
4:10:3:24:98759,-95.28,-55.9,61.05,-0.86,-0.52,-0.05,1.00623059,1.020582526
4:10:3:25:98856,-91.66,-57.4,54.83,-0.86,-0.42,0.06,0.958957768,0.994113749
4:10:3:25:99252,-89.52,-62.46,30.81,-0.82,-0.44,0.13,0.939627586,0.968271981
4:10:3:25:99348,-88.3,-64.31,20.98,-0.85,-0.36,0.07,0.925742945,0.941442766
4:10:3:25:99444,-91.07,-67.81,21.11,-0.97,-0.31,0.41,1.097770468,0.987713666
4:10:3:25:99539,-81.73,-69.23,5.64,-0.93,-0.3,0.28,1.01651365,1.013342354
4:10:3:25:99651,-76.73,-70.96,-3.58,-1.01,-0.3,0.14,1.062873464,1.059052527
4:10:3:25:99747,-74.26,-71.08,-9.29,-1.01,-0.35,0.18,1.083974169,1.054453761
4:10:3:26:99859,-67.94,-74.41,-15.9,-0.91,-0.3,0.09,0.962392851,1.036413495
4:10:3:26:100262,-43.18,-75.72,-37.37,-0.88,-0.11,0.29,0.933059484,0.993142168
4:10:3:26:100358,-56,-77.45,-24.12,-0.99,-0.16,0.25,1.033537614,0.976329983
4:10:3:26:100439,-57.78,-77.68,-21.93,-0.84,-0.22,0.23,0.898276127,0.954957742
4:10:3:26:100534,-75.61,-76.63,-4.08,-1.08,-0.15,0.16,1.102043556,1.011285766
4:10:3:26:100661,-74.49,-76.62,-6.15,-0.95,-0.27,0.15,0.998949448,0.999756377
4:10:3:26:100742,-79.93,-75.65,-0.75,-1.01,-0.25,0.13,1.048570455,1.049854487
4:10:3:27:100871,-80.47,-75.81,-0.67,-0.96,-0.25,0.11,0.998098192,1.015206032
4:10:3:27:101244,-78.2,-77.66,-3.13,-0.95,-0.2,0.13,0.979489663,1.008719437
4:10:3:27:101355,-78.01,-77.78,-3.42,-0.96,-0.15,0.05,0.972933708,0.983507188
4:10:3:27:101452,-77.84,-77.21,-3.69,-1.27,-0.27,0.25,1.32223296,1.09155211
4:10:3:27:101548,-73.29,-77.77,-9.26,-0.81,-0.27,0.14,0.865216736,1.053461135
4:10:3:27:101644,-83.54,-75.78,2.23,-1.14,-0.16,0.16,1.162239218,1.116562971
4:10:3:27:101756,-82.66,-78.3,-0.47,-0.92,-0.27,0.09,0.963016095,0.996824016
4:10:3:28:101852,-95.09,-73.87,12.52,-1.03,-0.24,0,1.057591604,1.060948972
4:10:3:28:102262,-101.74,-71.59,18.15,-1.04,-0.26,0.01,1.072054103,1.030887267
4:10:3:28:102357,-104.01,-72.58,19.61,-1.03,-0.33,0,1.081572929,1.070406212
4:10:3:28:102438,-88.26,-73.15,4.07,-0.87,-0.13,-0.13,0.889213135,1.014280056
4:10:3:28:102534,-93.27,-73.84,6.97,-0.88,-0.3,0.06,0.931665176,0.967483747
4:10:3:28:102630,-95.17,-72.03,9.26,-1.04,-0.28,0,1.077032961,0.965970424
4:10:3:28:102741,-92.5,-73.14,5.79,-0.98,-0.32,0.03,1.031358328,1.013352155
4:10:3:29:102854,-93.53,-71.19,6.13,-0.96,-0.35,0.02,1.022007828,1.043466372
4:10:3:29:103258,-97.35,-58.78,5.29,-0.96,-0.56,-0.02,1.111575459,1.054980538
4:10:3:29:103339,-90.73,-60.73,-2.31,-0.86,-0.52,-0.02,1.00518655,1.046256612
4:10:3:29:103450,-91.09,-57.65,-2.9,-0.83,-0.53,0.01,0.984835012,1.033865673
4:10:3:29:103546,-94.55,-54.97,-1.12,-0.86,-0.59,-0.05,1.044126429,1.011382664
4:10:3:29:103642,-98.34,-51.51,1.46,-0.77,-0.66,-0.08,1.017300349,1.015420597
4:10:3:29:103755,-100.63,-47.15,4.52,-0.66,-0.51,-0.07,0.837018518,0.966148432
4:10:3:30:103850,-105.69,-44.05,6.99,-0.71,-0.61,-0.24,0.966333276,0.940217381
4:10:3:30:104241,-121.73,-38.81,20.2,-0.59,-0.63,-0.44,0.968813708,0.924055167
4:10:3:30:104336,-123.72,-39.97,22.1,-0.68,-0.6,-0.43,1.003643363,0.979596782
4:10:3:30:104448,-128.37,-43.06,22.64,-0.61,-0.55,-0.45,0.936536171,0.969664414
4:10:3:30:104545,-133.18,-43.09,23.71,-0.73,-0.55,-0.53,1.056550993,0.998910176
4:10:3:30:104657,-134.02,-45.41,23.06,-0.77,-0.59,-0.62,1.151260179,1.048115781
4:10:3:30:104737,-134.68,-48.94,21.29,-0.78,-0.54,-0.52,1.081850267,1.096553813
4:10:3:31:104849,-132.01,-49.54,19.01,-0.77,-0.39,-0.49,0.99252204,1.075210829
4:10:3:31:105255,-132.07,-61.23,21.26,-0.83,-0.32,-0.41,0.979489663,1.01795399
4:10:3:31:105336,-134.34,-63.33,23.96,-0.88,-0.29,-0.38,1.00144895,0.991153551
4:10:3:31:105431,-133.86,-65.76,23.81,-0.81,-0.27,-0.41,0.947153631,0.976030748
4:10:3:31:105544,-131.4,-62.7,23.92,-0.81,-0.38,-0.41,0.984174781,0.977592454
4:10:3:31:105640,-129.58,-53.08,27.03,-0.87,-0.42,-0.41,1.04947606,0.993601491
4:10:3:31:105751,-128.8,-50.41,27.04,-0.77,-0.49,-0.49,1.035905401,1.023185414
4:10:3:32:105848,-128.45,-46.62,26.41,-0.7,-0.51,-0.56,1.031358328,1.038913263
4:10:3:32:106245,-132.37,-40.93,31.73,-0.66,-0.58,-0.56,1.041921302,1.03639501
4:10:3:32:106341,-133.7,-40.15,32.33,-0.61,-0.52,-0.58,0.989393754,1.020891128
4:10:3:32:106437,-135.58,-39.27,32.75,-0.6,-0.55,-0.63,1.029271587,1.020195548
4:10:3:32:106533,-135.33,-36.42,32.96,-0.55,-0.52,-0.69,1.02420701,1.014290784
4:10:3:32:106645,-136.43,-34.76,33.38,-0.53,-0.56,-0.7,1.041393297,1.031623965
4:10:3:32:106757,-137.09,-34.95,33.81,-0.49,-0.54,-0.6,0.944298682,1.003299663
4:10:3:33:106853,-138.23,-34.67,34.81,-0.63,-0.56,-0.77,1.14166545,1.042452476
4:10:3:33:107250,-136.61,-33.96,35.01,-0.5,-0.55,-0.78,1.077450695,1.054471609
4:10:3:33:107378,-136.82,-31.5,35.95,-0.41,-0.51,-0.69,0.950946897,1.056687681
4:10:3:33:107458,-135.8,-30.6,35.95,-0.48,-0.6,-0.77,1.087795937,1.038731176
4:10:3:33:107554,-135.63,-30.97,36.83,-0.44,-0.53,-0.65,0.947100839,0.995281224
4:10:3:33:107666,-136.67,-29.72,39.5,-0.39,-0.55,-0.64,0.92962358,0.988173452
4:10:3:33:107778,-141.08,-26.76,43.93,-0.33,-0.56,-0.82,1.046374694,0.974366371
4:10:3:34:107842,-144.09,-26.2,48.81,-0.36,-0.45,-0.78,0.969793793,0.981930689
4:10:3:34:108253,-145.83,-29.8,57.89,-0.45,-0.41,-0.9,1.086554186,1.034240891
4:10:3:34:108349,-146.94,-31,60.1,-0.48,-0.38,-0.7,0.929946235,0.995431405
4:10:3:34:108429,-147.59,-30.43,60.47,-0.39,-0.47,-0.91,1.095947079,1.0374825
4:10:3:34:108557,-146.94,-30.99,60.9,-0.41,-0.42,-0.73,0.936696322,0.987529879
4:10:3:34:108653,-146.03,-30.84,62.08,-0.42,-0.51,-0.71,0.969845348,1.000829583
4:10:3:34:108748,-147.87,-29.98,65.05,-0.4,-0.5,-1.02,1.204325537,1.036955736
4:10:3:35:108861,-150.67,-27.01,67.26,-0.29,-0.53,-0.89,1.075685828,1.083285571
4:10:3:35:109251,-151.04,-28.27,67.09,-0.54,-0.62,-0.88,1.204325537,1.161445634
4:10:3:35:109379,-150.38,-28.5,67.39,-0.44,-0.46,-0.88,1.086093919,1.122035095
4:10:3:35:109443,-149.6,-27.89,67.22,-0.35,-0.4,-0.92,1.062497059,1.117638838
4:10:3:35:109539,-149.87,-27.23,67.93,-0.25,-0.33,-0.87,0.963483264,1.03735808
4:10:3:35:109636,-149.72,-27.48,68.87,-0.38,-0.5,-0.97,1.155551816,1.060510713
4:10:3:35:109747,-152.16,-29.14,69.65,-0.38,-0.48,-0.84,1.039422917,1.052819332
4:10:3:35:109827,-154.52,-29.44,69.64,-0.31,-0.32,-0.84,0.950841732,1.048605488
4:10:3:36:110259,-156.73,-25.97,71.81,-0.38,-0.33,-0.91,1.039903842,1.010056164
4:10:3:36:110339,-156.76,-25.71,72.78,-0.35,-0.42,-0.93,1.078795625,1.0231804
4:10:3:36:110435,-157.15,-25.27,73.47,-0.34,-0.31,-0.9,1.010791769,1.043163745
4:10:3:36:110547,-157.55,-24.63,74.16,-0.34,-0.33,-0.9,1.017103731,1.035563708
4:10:3:36:110659,-157.83,-24.18,74.74,-0.34,-0.32,-0.9,1.013903348,1.01393295
4:10:3:36:110723,-158.18,-23.84,75.47,-0.32,-0.32,-0.89,0.998448797,1.009818626
4:10:3:37:110851,-158.43,-23.67,76.06,-0.35,-0.35,-0.9,1.027131929,1.013161358
4:10:3:37:111251,-158.55,-22.78,78.28,-0.32,-0.37,-0.87,0.998098192,1.007892973
4:10:3:37:111348,-159.58,-23.8,79.27,-0.24,-0.2,-0.91,0.962133047,0.995787723
4:10:3:37:111460,-159.41,-24.15,78.69,-0.42,-0.29,-0.9,1.034649699,0.998293646
4:10:3:37:111556,-158.33,-23.74,78.97,-0.38,-0.41,-0.91,1.067988764,1.021590503
4:10:3:37:111636,-158.33,-24.45,78.97,-0.38,-0.39,-0.97,1.112384825,1.07167443
4:10:3:37:111748,-158.26,-25.56,78.87,-0.31,-0.34,-0.85,0.966540222,1.04897127
4:10:3:38:111860,-158.32,-24.92,79.31,-0.41,-0.35,-0.9,1.049094848,1.042673298
4:10:3:38:112243,-159.33,-25.71,79.38,-0.44,-0.34,-0.91,1.066442685,1.027359251
4:10:3:38:112354,-159.57,-26.9,79.47,-0.56,-0.21,-0.78,0.982903861,1.032813798
4:10:3:38:112450,-160.17,-29.63,80.81,-0.57,-0.3,-0.87,1.082497113,1.043947886
4:10:3:38:112547,-161.46,-31.24,81.07,-0.53,-0.3,-0.86,1.053802638,1.039734537
4:10:4:2:136451,-169.26,-31.27,105.37,-0.55,-0.16,-0.87,1.041633333,1.059311028
4:10:4:2:136452,-169.27,-31.46,105.21,-0.55,-0.16,-0.85,1.024987805,1.040141259
4:10:4:2:136515,-169.44,-31.59,104.82,-0.54,-0.15,-0.87,1.034891299,1.033837479
4:10:4:2:136611,-170.43,-31.04,104.66,-0.52,-0.14,-0.86,1.014692072,1.024857058
4:10:4:2:136707,-170.77,-30.67,104.65,-0.52,-0.14,-0.87,1.023181313,1.024254895
4:10:4:2:136802,-170.35,-30.52,104.46,-0.51,-0.15,-0.86,1.011039069,1.016304151
4:10:4:3:137216,-167.9,-29.57,103.45,-0.5,-0.19,-0.87,1.021273715,1.018498032
4:10:4:3:137296,-167.53,-29.46,103.33,-0.5,-0.18,-0.87,1.019460642,1.017257809
4:10:4:3:137392,-167.4,-29.36,103.37,-0.5,-0.18,-0.87,1.019460642,1.020064999
4:10:4:3:137489,-167.4,-29.25,103.59,-0.5,-0.19,-0.87,1.021273715,1.020064999
4:10:4:3:137600,-167.37,-28.98,103.74,-0.49,-0.18,-0.88,1.023181313,1.021305223
4:10:4:3:137696,-167.24,-28.83,103.82,-0.49,-0.19,-0.88,1.024987805,1.023147611
4:10:4:3:137792,-167.12,-28.74,103.88,-0.48,-0.19,-0.87,1.011632344,1.019933821
4:10:4:4:138295,-166.43,-28.55,103.84,-0.49,-0.21,-0.88,1.028882889,1.021834346
4:10:4:4:138391,-166.59,-28.32,104,-0.47,-0.2,-0.88,1.017496929,1.019337387
4:10:4:4:138503,-166.52,-28.35,103.95,-0.49,-0.21,-0.88,1.028882889,1.025087569
4:10:4:4:138615,-166.72,-28.39,104.03,-0.48,-0.21,-0.87,1.015578653,1.020652824
4:10:4:4:138711,-167.18,-28.06,104.21,-0.49,-0.19,-0.88,1.024987805,1.023149782
4:10:4:4:138822,-167.51,-27.25,104.54,-0.47,-0.21,-0.89,1.028153685,1.022906714
4:10:4:5:139214,-166.96,-26.06,103.16,-0.38,-0.15,-0.81,0.907193474,0.986778321
4:10:4:5:139324,-164.95,-26.88,96.9,-0.49,-0.21,-0.91,1.054656342,0.996667834
4:10:4:5:139404,-162.97,-25.95,93.84,-0.45,-0.24,-0.9,1.034456379,0.998768732
4:10:4:5:139501,-161.13,-23.71,93.66,-0.36,-0.34,-0.85,0.983717439,1.02427672
4:10:4:5:139596,-159.66,-22.57,92.97,-0.31,-0.35,-0.8,0.926606713,0.98159351
4:10:4:5:139708,-159.27,-22.93,91.68,-0.34,-0.28,-0.89,0.993025679,0.967783277
4:10:4:5:139805,-158.52,-24.67,91.38,-0.42,-0.33,-0.88,1.029417311,0.983016568
4:10:4:6:140294,-158.81,-26,92.5,-0.39,-0.3,-0.87,0.999499875,1.007314288
4:10:4:6:140422,-160.25,-29.56,92.96,-0.4,-0.5,-0.75,0.986154146,1.005023777
4:10:4:6:140501,-160.97,-29.24,92.84,-0.44,-0.27,-0.86,1.003045363,0.996233128
4:10:4:6:140598,-161.69,-29.44,93.17,-0.5,-0.25,-0.87,1.034117982,1.007772497
4:10:4:6:140694,-162.18,-28.65,93.42,-0.45,-0.25,-0.87,1.010890696,1.016018014
4:10:4:6:140789,-162.47,-27.48,93.55,-0.48,-0.27,-0.88,1.038123307,1.027710662
4:10:4:7:141212,-164.4,-23.19,95.51,-0.31,-0.23,-0.88,0.960937043,1.003317015
4:10:4:7:141324,-164.42,-24.6,96.27,-0.44,-0.25,-0.9,1.032521186,1.010527179
4:10:4:7:141388,-163.78,-25.25,96.31,-0.42,-0.27,-0.91,1.037978805,1.010479011
4:10:4:7:141500,-163.69,-25.51,96.52,-0.4,-0.27,-0.89,1.012422837,1.027640943
4:10:4:7:141596,-163.98,-26.58,97.19,-0.51,-0.27,-0.86,1.035664038,1.02868856
4:10:4:7:141708,-164.19,-27.43,97.32,-0.49,-0.23,-0.87,1.02464628,1.024244385
4:10:4:7:141804,-164.03,-27.83,97.37,-0.44,-0.31,-0.84,0.997647232,1.019319184
4:10:4:8:142317,-166.24,-32.75,98.63,-0.59,-0.2,-0.84,1.045801128,1.022698214
4:10:4:8:142413,-166.73,-32.42,98.34,-0.55,-0.18,-0.86,1.036580918,1.026676426
4:10:4:8:142525,-167.32,-31.95,98.42,-0.52,-0.17,-0.85,1.010841234,1.031074427
4:10:4:8:142605,-167.48,-31.85,98.61,-0.53,-0.17,-0.83,0.999349789,1.015590647
4:10:4:8:142701,-166.86,-31.8,98.56,-0.54,-0.21,-0.84,1.020441081,1.010210701
4:10:4:8:142797,-166.44,-31.44,98.68,-0.53,-0.12,-0.95,1.094440496,1.038077122
4:10:4:9:143214,-167.04,-31.22,99.35,-0.55,-0.17,-0.84,1.018331969,1.044404516
4:10:4:9:143310,-166.76,-31.16,99.17,-0.5,-0.23,-0.84,1.004241007,1.039004491
4:10:4:9:143406,-166.76,-31.42,99.08,-0.55,-0.21,-0.86,1.042209192,1.021594056
4:10:4:9:143502,-166.94,-31.49,98.91,-0.51,-0.17,-0.87,1.022692525,1.023047575
4:10:4:9:143598,-166.59,-31.27,98.5,-0.56,-0.19,-0.85,1.035470907,1.033457541
4:10:4:9:143710,-165.83,-31.1,98.22,-0.57,-0.23,-0.86,1.057071426,1.038411619
4:10:4:9:143789,-165.1,-30.69,98.02,-0.53,-0.24,-0.85,1.030048543,1.040863625
4:10:4:10:144299,-167.63,-30.99,100.5,-0.53,-0.19,-0.85,1.019558728,1.035559566
4:10:4:10:144395,-167.95,-30.44,100.56,-0.52,-0.16,-0.85,1.00920761,1.01960496
4:10:4:10:144491,-168.26,-30.31,100.67,-0.51,-0.18,-0.86,1.015923225,1.014896521
4:10:4:10:144603,-168.46,-30.22,100.68,-0.53,-0.17,-0.88,1.04124925,1.022126695
4:10:4:10:144699,-168.64,-30.08,100.71,-0.49,-0.16,-0.87,1.011236866,1.022803114
4:10:4:10:144795,-168.95,-29.99,100.84,-0.5,-0.18,-0.86,1.010940156,1.021142091
4:10:4:11:145212,-168,-29.48,99.5,-0.52,-0.17,-0.89,1.044700914,1.022292646
4:10:4:11:145307,-167.43,-29.61,99.02,-0.51,-0.2,-0.86,1.019656805,1.025099292
4:10:4:11:145403,-167.43,-29.67,98.62,-0.5,-0.18,-0.88,1.028007782,1.0307885
4:10:4:11:145499,-167.77,-29.8,98.81,-0.51,-0.18,-0.87,1.024402265,1.024022284
4:10:4:11:145611,-167.48,-29.9,98.86,-0.51,-0.19,-0.85,1.009306693,1.020572247
4:10:4:11:145707,-167.24,-29.92,99.02,-0.49,-0.19,-0.86,1.007869039,1.013859332
4:10:4:11:145803,-167.11,-29.95,99.12,-0.51,-0.2,-0.87,1.028105053,1.015093595
4:10:4:12:146293,-167.99,-30.5,100.36,-0.52,-0.17,-0.88,1.036194962,1.024056351
4:10:4:12:146388,-168.31,-30.91,100.65,-0.54,-0.15,-0.86,1.026498904,1.030266306
4:10:4:12:146500,-168.42,-31.33,100.91,-0.54,-0.17,-0.86,1.029611577,1.030768481
4:10:4:12:146596,-167.99,-31.59,101.04,-0.53,-0.19,-0.85,1.019558728,1.02522307
4:10:4:12:146708,-168.09,-31.94,101.58,-0.54,-0.17,-0.86,1.029611577,1.026260628
4:10:4:12:146804,-168.16,-32.11,102,-0.54,-0.17,-0.88,1.046374694,1.031848333
4:10:4:13:147225,-167.99,-33.84,102.89,-0.59,-0.15,-0.82,1.021273715,1.032419995
4:10:4:13:147321,-167.73,-34.22,103.29,-0.58,-0.16,-0.82,1.017054571,1.028234326
4:10:4:13:147401,-167.44,-34.08,103.68,-0.59,-0.17,-0.84,1.040480658,1.026269648
4:10:4:13:147513,-167.32,-33.89,104.14,-0.56,-0.18,-0.84,1.025475499,1.027670243
4:10:4:13:147609,-167.56,-33.43,104.74,-0.54,-0.15,-0.86,1.026498904,1.030818354
4:10:4:13:147705,-167.14,-33.12,104.93,-0.57,-0.19,-0.86,1.049094848,1.03368975
4:10:4:13:147817,-166.37,-32.74,104.8,-0.59,-0.25,-0.84,1.056503668,1.044032473
4:10:4:14:148300,-172.87,-36.3,106.92,-0.53,-0.05,-0.83,0.986052737,1.030550418
4:10:4:14:148395,-177.51,-42.78,110.05,-0.65,0.02,-0.71,0.962808392,1.001788266
4:10:4:14:148492,176.63,-50.79,114.87,-0.66,0.07,-0.56,0.868389314,0.939083481
4:10:4:14:148588,168.54,-60.35,122.03,-0.75,0.13,-0.41,0.864580823,0.898592843
4:10:4:14:148699,153.05,-70.78,136.12,-0.86,0.1,-0.17,0.88232647,0.871765536
4:10:4:14:148828,119.51,-79.16,166.77,-0.91,0.08,0.04,0.914385039,0.887097444
4:10:4:15:149215,-6.28,-55.63,-80.23,-0.82,-0.09,0.7,1.081896483,0.959535997
4:10:4:15:149309,-6.69,-47.8,-84.4,-0.78,-0.11,0.79,1.115616422,1.037299315
4:10:4:15:149422,-8.24,-40.96,-88.36,-0.69,-0.06,0.86,1.104219181,1.100577362
4:10:4:15:149518,-8.54,-34.91,-92.92,-0.53,-0.11,0.91,1.058820098,1.092885234
4:10:4:15:149613,-8.33,-29.38,-96.97,-0.53,-0.14,0.93,1.079536938,1.080858739
4:10:4:15:149709,-8.28,-25.61,-99.7,-0.42,-0.14,0.97,1.066255129,1.068204055
4:10:4:15:149806,-8.04,-22.02,-100.45,-0.29,-0.1,0.97,1.017349497,1.054380521
4:10:4:16:150356,-3.74,-6.75,-107.68,-0.17,-0.09,0.99,1.008513758,1.030706128
4:10:4:16:150420,-2.18,-7.04,-109.25,-0.13,-0.06,0.92,0.931074648,0.985645968
4:10:4:16:150516,-0.61,-7.92,-110.78,-0.08,-0.03,0.93,0.933916484,0.957834963
4:10:4:16:150613,0.05,-8.06,-113.59,-0.09,-0.03,0.99,0.994535067,0.9531754
4:10:4:16:150693,0.52,-8.59,-119.03,-0.05,-0.04,0.91,0.912249966,0.946900506
4:10:4:16:150819,-0.18,-8.72,-125.73,-0.01,-0.03,0.9,0.900555384,0.935780139
4:10:4:17:151307,2.57,0.02,-154.56,-0.06,-0.12,1.03,1.038701112,0.950502154
4:10:4:17:151419,3,-0.13,-158.7,-0.06,-0.12,0.92,0.929731144,0.956329213
4:10:4:17:151499,4.93,-0.11,-159.58,-0.04,-0.13,0.96,0.969587541,0.979339932
4:10:4:17:151611,4.61,-0.62,-157.9,-0.04,-0.14,1,1.010544408,0.969954364
4:10:4:17:151707,3.63,-1.32,-155.43,0,-0.09,1.15,1.153516363,1.044549437
4:10:4:17:151819,2.49,-0.95,-152.46,-0.07,-0.04,0.85,0.853814968,1.00595858
4:10:4:18:152292,-13.39,-0.07,-153.53,-0.07,-0.02,1.13,1.132342704,1.046558012
4:10:4:18:152420,-13.14,1.01,-153.84,-0.1,-0.11,1.05,1.060471593,1.015543089
4:10:4:18:152517,-12.41,1.23,-153.45,-0.11,-0.09,1.11,1.119062107,1.103958802
4:10:4:18:152613,-9.83,-0.14,-154.7,-0.05,-0.09,0.94,0.945621489,1.041718396
4:10:4:18:152709,-6.41,-1.26,-156.18,-0.06,-0.07,0.98,0.984327181,1.016336926
4:10:4:18:152836,-3.7,-1.16,-157.46,-0.03,-0.05,1.02,1.021665307,0.983871326
4:10:4:19:152900,-1.64,0.12,-158.39,-0.01,-0.03,1.05,1.050476083,1.018822857
4:10:4:19:153301,-1.77,2.41,-160.8,0.02,0.01,0.75,0.750333259,0.940824883
4:10:4:19:153414,-3.39,1.5,-161.14,0.02,-0.01,0.87,0.870287309,0.89036555
4:10:4:19:153510,-3.82,1.29,-161.44,-0.01,-0.07,1.02,1.022448043,0.88102287
4:10:4:19:153605,-4.81,0.95,-161.37,-0.01,-0.08,1,1.003244736,0.965326696
4:10:4:19:153717,-6.32,1.05,-160.3,0.02,-0.06,0.9,0.902219485,0.975970755
4:10:4:19:153813,-6.51,1.52,-158.43,0,-0.1,0.94,0.945304184,0.950256135
4:10:4:20:154313,-6.47,4.67,-145.41,0.05,-0.09,1.06,1.064988263,0.970837311
4:10:4:20:154410,-6.86,5.61,-145.51,0.05,-0.12,1.04,1.048093507,1.019461985
4:10:4:20:154489,-7.35,6.05,-145.93,0.23,0.29,1.32,1.370912105,1.161331292
4:10:4:20:154617,-6.5,7.06,-146.35,0.09,0,1,1.004041832,1.141015815
4:10:4:20:154713,-5.14,7.53,-145.98,0.1,0,0.97,0.975141015,1.116698317
4:10:4:20:154809,-4.41,6.97,-145.6,0.08,0,0.98,0.983259884,0.987480911
4:10:4:21:155212,-1.99,6.2,-144.32,0.09,0,0.97,0.97416631,0.977522403
4:10:4:21:155291,-1.64,6.05,-144.05,0.09,0,0.97,0.97416631,0.977197502
4:10:4:21:155387,-1.32,5.92,-143.8,0.09,0,0.97,0.97416631,0.97416631
4:10:4:21:155499,-1.09,5.82,-143.54,0.09,0,0.97,0.97416631,0.97416631
4:10:4:21:155611,-0.89,5.74,-143.29,0.08,0,0.98,0.983259884,0.977197502
4:10:4:21:155707,-0.71,5.66,-143.08,0.09,0,0.97,0.97416631,0.977197502
4:10:4:21:155803,-0.56,5.6,-142.91,0.09,0,0.97,0.97416631,0.977197502
4:10:4:22:156225,-0.2,5.45,-142.14,0.09,0,0.97,0.97416631,0.97416631
4:10:4:22:156319,-0.13,5.42,-141.99,0.09,0,0.97,0.97416631,0.97416631
4:10:4:22:156399,-0.07,5.38,-141.87,0.09,0,0.97,0.97416631,0.97416631
4:10:4:22:156511,-0.02,5.35,-141.78,0.09,0,0.97,0.97416631,0.97416631
4:10:4:22:156607,0.02,5.32,-141.68,0.09,0,0.97,0.97416631,0.97416631
4:10:4:22:156687,0.06,5.31,-141.57,0.09,0,0.97,0.97416631,0.97416631
4:10:4:22:156815,0.1,5.29,-141.48,0.09,0,0.97,0.97416631,0.97416631
4:10:4:23:157211,0.18,5.23,-141.15,0.09,0,0.97,0.97416631,0.97416631
4:10:4:23:157305,0.21,5.22,-141.1,0.09,0,0.98,0.984123976,0.977485532
4:10:4:23:157402,0.22,5.22,-141.03,0.09,0,0.97,0.97416631,0.977485532
4:10:4:23:157497,0.24,5.21,-140.98,0.09,0,0.98,0.984123976,0.980804754
4:10:4:23:157609,0.25,5.21,-140.91,0.09,0,0.97,0.97416631,0.977485532
4:10:4:23:157689,0.25,5.21,-140.85,0.09,0,0.97,0.97416631,0.977485532
4:10:4:23:157817,0.27,5.19,-140.83,0.09,0,0.98,0.984123976,0.977485532
4:10:4:24:158235,0.31,5.17,-140.72,0.09,0,0.97,0.97416631,0.977485532
4:10:4:24:158298,0.32,5.16,-140.69,0.09,0,0.98,0.984123976,0.980804754
4:10:4:24:158393,0.33,5.15,-140.67,0.08,0,0.97,0.973293378,0.977194555
4:10:4:24:158489,0.33,5.15,-140.63,0.09,0,0.98,0.984123976,0.980513777
4:10:4:24:158602,0.34,5.14,-140.63,0.09,0,0.97,0.97416631,0.977194555
4:10:4:24:158698,0.35,5.14,-140.63,0.09,0,0.97,0.97416631,0.977485532
4:10:4:24:158794,0.37,5.15,-140.61,0.09,0,0.98,0.984123976,0.977485532
4:10:4:25:159212,0.38,5.14,-140.54,0.09,0,0.97,0.97416631,0.977485532
4:10:4:25:159306,0.39,5.12,-140.59,0.09,0,0.98,0.984123976,0.980804754
4:10:4:25:159402,0.38,5.13,-140.53,0.09,0,0.97,0.97416631,0.977485532
4:10:4:25:159497,0.37,5.14,-140.45,0.09,0,0.98,0.984123976,0.980804754
4:10:4:25:159594,0.36,5.17,-140.36,0.09,0,0.97,0.97416631,0.977485532
4:10:4:25:159689,0.36,5.17,-140.33,0.09,0,0.97,0.97416631,0.977485532
4:10:4:25:159801,0.35,5.17,-140.27,0.09,0,0.97,0.97416631,0.97416631
4:10:4:26:160213,0.36,5.16,-140.05,0.09,0,0.97,0.97416631,0.97416631
4:10:4:26:160323,0.38,5.15,-140.04,0.09,0,0.97,0.97416631,0.97416631
4:10:4:26:160403,0.38,5.14,-140.02,0.09,0,0.97,0.97416631,0.97416631
4:10:4:26:160595,0.38,5.14,-139.99,0.09,0,0.97,0.97416631,0.97416631
4:10:4:26:160611,0.38,5.13,-139.97,0.09,0.01,0.97,0.974217635,0.974183418
4:10:4:26:160707,0.38,5.12,-139.95,0.09,0,0.98,0.984123976,0.97750264
4:10:4:26:160803,0.39,5.11,-139.94,0.09,0,0.97,0.97416631,0.97750264
4:10:4:27:161210,0.39,5.13,-139.84,0.09,0,0.98,0.984123976,0.980804754
4:10:4:27:161303,0.4,5.13,-139.82,0.09,0,0.97,0.97416631,0.977485532
4:10:4:27:161415,0.4,5.13,-139.79,0.09,0,0.97,0.97416631,0.977485532
4:10:4:27:161496,0.41,5.12,-139.79,0.09,0,0.97,0.97416631,0.97416631
4:10:4:27:161592,0.42,5.11,-139.83,0.09,0,0.97,0.97416631,0.97416631
4:10:4:27:161719,0.43,5.11,-139.84,0.09,0,0.97,0.97416631,0.97416631
4:10:4:27:161815,0.43,5.1,-139.83,0.09,0,0.97,0.97416631,0.97416631
4:10:4:28:162212,0.44,5.11,-139.79,0.09,0,0.98,0.984123976,0.977485532
4:10:4:28:162307,0.43,5.11,-139.78,0.09,0,0.97,0.97416631,0.977485532
4:10:4:28:162402,0.43,5.11,-139.78,0.09,0,0.97,0.97416631,0.977485532
4:10:4:28:162499,0.42,5.12,-139.76,0.09,0,0.97,0.97416631,0.97416631
4:10:4:28:162595,0.42,5.11,-139.77,0.09,0,0.97,0.97416631,0.97416631
4:10:4:28:162690,0.43,5.11,-139.77,0.09,0,0.98,0.984123976,0.977485532
4:10:4:28:162802,0.42,5.11,-139.74,0.09,0,0.98,0.984123976,0.980804754
4:10:4:29:163207,0.47,5.09,-139.84,0.09,0.01,0.98,0.984174781,0.984140911
4:10:4:29:163318,0.46,5.09,-139.85,0.09,0,0.97,0.97416631,0.980821689
4:10:4:29:163397,0.45,5.09,-139.85,0.09,0,0.97,0.97416631,0.977502467
4:10:4:29:163589,0.46,5.09,-139.9,0.09,0,0.97,0.97416631,0.97416631
4:10:4:29:163621,0.47,5.08,-139.97,0.09,0,0.98,0.984123976,0.977485532
4:10:4:29:163733,0.48,5.07,-140.05,0.09,0,0.97,0.97416631,0.977485532
4:10:4:29:163813,0.47,5.08,-140.03,0.09,0,0.97,0.97416631,0.977485532
4:10:4:30:164214,0.48,5.09,-140.11,0.09,0.01,0.97,0.974217635,0.974183418
4:10:4:30:164309,0.47,5.1,-140.1,0.09,0,0.97,0.97416631,0.974183418
4:10:4:30:164404,0.47,5.1,-140.11,0.09,0,0.97,0.97416631,0.974183418
4:10:4:30:164517,0.49,5.07,-140.18,0.09,0.01,0.96,0.964261375,0.970864665
4:10:4:30:164613,0.49,5.08,-140.18,0.09,0,0.97,0.97416631,0.970864665
4:10:4:30:164741,0.5,5.08,-140.23,0.09,0,0.97,0.97416631,0.970864665
4:10:4:30:164837,0.51,5.08,-140.29,0.09,0.01,0.97,0.974217635,0.974183418
4:10:4:31:165223,0.52,5.06,-140.43,0.09,0,0.97,0.97416631,0.974183418
4:10:4:31:165318,0.51,5.06,-140.44,0.09,0,0.98,0.984123976,0.97750264
4:10:4:31:165398,0.51,5.06,-140.46,0.09,0,0.97,0.97416631,0.977485532
4:10:4:31:165526,0.51,5.06,-140.49,0.09,0,0.98,0.984123976,0.980804754
4:10:4:31:165622,0.51,5.07,-140.51,0.09,0,0.97,0.97416631,0.977485532
4:10:4:31:165701,0.51,5.07,-140.55,0.09,0,0.97,0.97416631,0.977485532
4:10:4:31:165813,0.52,5.06,-140.59,0.09,0,0.98,0.984123976,0.977485532
4:10:4:32:166210,0.48,5.09,-140.53,0.09,0,0.98,0.984123976,0.980804754
4:10:4:32:166321,0.49,5.08,-140.55,0.09,0,0.97,0.97416631,0.980804754
4:10:4:32:166481,0.49,5.09,-140.53,0.09,0,0.97,0.97416631,0.977485532
4:10:4:32:166513,0.48,5.09,-140.52,0.09,0,0.97,0.97416631,0.97416631
4:10:4:32:166609,0.47,5.1,-140.48,0.09,0,0.96,0.964209521,0.97084738
4:10:4:32:166721,0.46,5.1,-140.45,0.09,0,0.97,0.97416631,0.97084738
4:10:4:32:166817,0.46,5.1,-140.45,0.09,0,0.97,0.97416631,0.97084738
4:10:4:33:167218,0.45,5.1,-140.38,0.09,0,0.97,0.97416631,0.97416631
4:10:4:33:167330,0.44,5.1,-140.37,0.09,0,0.97,0.97416631,0.97416631
4:10:4:33:167410,0.44,5.1,-140.35,0.09,0,0.98,0.984123976,0.977485532
4:10:4:33:167506,0.44,5.1,-140.33,0.08,0,0.97,0.973293378,0.977194555
4:10:4:33:167618,0.45,5.09,-140.34,0.09,0,0.97,0.97416631,0.977194555
4:10:4:33:167730,0.45,5.09,-140.32,0.09,0,0.97,0.97416631,0.973875333
4:10:4:33:167810,0.45,5.09,-140.32,0.09,0,0.97,0.97416631,0.97416631
4:10:4:34:168210,0.46,5.09,-140.31,0.09,0,0.97,0.97416631,0.97416631
4:10:4:34:168305,0.45,5.09,-140.32,0.09,0,0.97,0.97416631,0.97416631
4:10:4:34:168417,0.45,5.09,-140.31,0.09,0,0.97,0.97416631,0.97416631
4:10:4:34:168513,0.46,5.08,-140.31,0.09,0,0.97,0.97416631,0.97416631
4:10:4:34:168624,0.46,5.09,-140.3,0.09,0,0.97,0.97416631,0.97416631
4:10:4:34:168704,0.46,5.09,-140.28,0.09,0,0.97,0.97416631,0.97416631
4:10:4:34:168817,0.46,5.09,-140.28,0.09,0,0.97,0.97416631,0.97416631
4:10:4:35:169207,0.48,5.07,-140.32,0.09,0,0.97,0.97416631,0.97416631
4:10:4:35:169317,0.48,5.07,-140.32,0.09,0,0.97,0.97416631,0.97416631
4:10:4:35:169414,0.47,5.07,-140.3,0.09,0,0.97,0.97416631,0.97416631
4:10:4:35:169525,0.46,5.07,-140.29,0.09,0,0.97,0.97416631,0.97416631
4:10:4:35:169621,0.46,5.07,-140.29,0.09,0,0.97,0.97416631,0.97416631
4:10:4:35:169717,0.47,5.06,-140.3,0.09,0,0.97,0.97416631,0.97416631
4:10:4:35:169813,0.47,5.05,-140.3,0.08,0,0.97,0.973293378,0.973875333
4:10:4:36:170222,0.47,5.06,-140.26,0.09,0,0.97,0.97416631,0.973875333
4:10:4:36:170318,0.48,5.07,-140.26,0.09,0,0.97,0.97416631,0.973875333
4:10:4:36:170430,0.48,5.06,-140.27,0.09,0,0.97,0.97416631,0.97416631
4:10:4:36:170510,0.47,5.07,-140.24,0.08,0,0.98,0.983259884,0.977197502
4:10:4:36:170590,0.47,5.07,-140.23,0.09,0,0.97,0.97416631,0.977197502
4:10:4:36:170701,0.47,5.06,-140.21,0.07,0.02,0.97,0.972728122,0.976718106
4:10:4:36:170814,0.47,5.07,-140.15,0.09,0,0.97,0.97416631,0.973686914
4:10:4:37:171216,0.4,5.13,-139.7,0.09,0,0.97,0.97416631,0.973686914
4:10:4:37:171310,0.4,5.13,-139.6,0.09,0,0.97,0.97416631,0.97416631
4:10:4:37:171423,0.39,5.13,-139.5,0.08,0.01,0.97,0.973344749,0.973892456
4:10:4:37:171519,0.39,5.13,-139.43,0.09,0,0.97,0.97416631,0.973892456
4:10:4:37:171615,0.38,5.14,-139.34,0.09,0.01,0.97,0.974217635,0.973909565
4:10:4:37:171711,0.38,5.13,-139.27,0.09,0,0.97,0.97416631,0.974183418
4:10:4:37:171807,0.4,5.12,-139.24,0.09,0,0.97,0.97416631,0.974183418
4:10:4:38:172320,0.41,5.11,-138.98,0.09,0,0.97,0.97416631,0.97416631
4:10:4:38:172432,0.42,5.11,-138.96,0.09,0,0.97,0.97416631,0.97416631
4:10:4:38:172527,0.42,5.1,-138.92,0.09,0.01,0.96,0.964261375,0.970864665
4:10:4:38:172607,0.43,5.1,-138.9,0.08,0,0.97,0.973293378,0.970573688
4:10:4:38:172719,0.44,5.1,-138.87,0.09,0.01,0.97,0.974217635,0.970590796
4:10:4:38:172815,0.44,5.1,-138.83,0.09,0,0.97,0.97416631,0.973892441
4:10:4:39:173214,0.45,5.09,-138.74,0.09,0,0.97,0.97416631,0.974183418
4:10:4:39:173310,0.45,5.09,-138.72,0.09,0,0.98,0.984123976,0.977485532
4:10:4:39:173422,0.46,5.08,-138.73,0.09,0.01,0.97,0.974217635,0.97750264
4:10:4:39:173534,0.45,5.08,-138.69,0.09,0,0.97,0.97416631,0.97750264
4:10:4:39:173630,0.46,5.07,-138.69,0.09,0,0.96,0.964209521,0.970864489
4:10:4:39:173710,0.47,5.06,-138.66,0.09,0,0.98,0.984123976,0.974166602
4:10:4:39:173837,0.47,5.06,-138.66,0.09,0.01,0.98,0.984174781,0.977502759
4:10:4:40:174220,0.48,5.05,-138.64,0.09,0,0.97,0.97416631,0.980821689
4:10:4:40:174349,0.47,5.05,-138.63,0.09,0,0.97,0.97416631,0.977502467
4:10:4:40:174413,0.5,5.03,-138.73,0.09,0.01,0.97,0.974217635,0.974183418
4:10:4:40:174524,0.52,5.02,-138.85,0.09,0,0.97,0.97416631,0.974183418
4:10:4:40:174636,0.54,5,-138.97,0.09,0,0.97,0.97416631,0.974183418
4:10:4:40:174717,0.56,4.99,-139.08,0.09,0,0.97,0.97416631,0.97416631
4:10:4:40:174813,0.56,4.99,-139.17,0.09,0,0.97,0.97416631,0.97416631
4:10:4:41:175330,0.59,4.97,-139.54,0.09,-0.01,0.99,0.994132788,0.980821803
4:10:4:41:175410,0.58,4.98,-139.56,0.07,0,0.99,0.992471662,0.986923587
4:10:4:41:175506,0.56,5,-139.59,0.07,0.06,0.94,0.944510455,0.977038302
4:10:4:41:175634,0.51,5.02,-139.62,0.02,-0.01,1.04,1.040240357,0.992407491
4:10:4:41:175698,0.53,5.02,-139.66,0.04,-0.01,1.01,1.010841234,0.998530682
4:10:4:41:175794,0.59,4.96,-139.67,0.07,0,1.03,1.032375901,1.027819164
4:10:4:42:176227,0.6,4.92,-139.84,0.04,0.05,0.96,0.962133047,1.001783394
4:10:4:42:176305,0.55,4.93,-139.91,0.11,0.01,1,1.006081508,1.000196818
4:10:4:42:176417,0.47,5.01,-139.84,0.1,0.03,0.96,0.965660396,0.977958317
4:10:4:42:176513,0.4,5,-139.74,0.1,0.03,0.93,0.935841867,0.96919459
4:10:4:42:176594,0.38,4.99,-139.68,0.13,-0.05,1.02,1.029465881,0.976989381
4:10:4:42:176721,0.36,5.02,-139.58,0.12,0.01,0.96,0.96752261,0.977610119
4:10:4:42:176785,0.37,5.03,-139.52,0.06,-0.02,1,1.001998004,0.999662165
4:10:4:43:177221,0.42,5.03,-139.33,0.07,-0.02,0.99,0.992673159,0.987397924
4:10:4:43:177301,0.46,5.02,-139.3,0.06,-0.03,0.94,0.942390577,0.97902058
4:10:4:43:177428,0.47,4.98,-139.27,0.13,0.01,0.93,0.939095309,0.958053015
4:10:4:43:177493,-0.18,5.06,-139.32,0.08,-0.03,0.94,0.943874992,0.941786959
4:10:4:43:177589,-0.47,5.1,-139.33,0.08,-0.04,0.96,0.964157663,0.949042655
4:10:4:43:177684,-0.41,5.13,-139.27,0.07,-0.02,1,1.002646498,0.970226384
4:10:4:43:177813,-0.59,5.14,-139.23,0.09,0,0.97,0.97416631,0.980323491
4:10:4:44:178227,-2.93,6.75,-141.63,0.19,-0.08,1.03,1.050428484,1.009080431
4:10:4:44:178307,-1.6,6.53,-142.18,0.12,0,1.05,1.056834897,1.02714323
4:10:4:44:178419,-0.49,7.07,-142.11,0.12,-0.05,0.96,0.968762097,1.025341826
4:10:4:44:178515,0.33,7.25,-140.99,0.09,-0.01,0.95,0.954306031,0.993301008
4:10:4:44:178610,0.57,6.29,-140.15,0.04,0.02,1.02,1.020979921,0.98134935
4:10:4:44:178739,-0.2,5.03,-140.09,0.15,0.02,0.98,0.991614845,0.988966932
4:10:4:44:178802,-0.31,4.51,-139.67,0.09,-0.09,1.04,1.047759514,1.020118093
4:10:4:45:179221,1.12,4.63,-138.63,-0.03,0.12,0.98,0.987775278,1.009049879
4:10:4:45:179301,0.93,4.42,-138.64,-0.03,-0.02,1.01,1.010643359,1.015392717
4:10:4:45:179397,1.07,4,-138.65,0.19,-0.15,0.94,0.970669872,0.98969617
4:10:4:45:179494,1.06,3.74,-138.98,0.06,-0.01,0.84,0.842199501,0.941170911
4:10:4:45:179638,1.29,3.38,-139.45,-0.01,0.11,0.86,0.867064011,0.893311128
4:10:4:45:179718,1.49,3.06,-139.9,0.2,0.1,1,1.024695077,0.91131953
4:10:4:45:179797,1.66,2.99,-140.23,-0.06,0.09,0.97,0.976012295,0.955923794
4:10:4:46:180223,1.32,2.75,-141.86,0.05,-0.08,0.9,0.904930937,0.968546103
4:10:4:46:180303,1.16,2.75,-141.79,0.23,-0.06,0.92,0.950210503,0.943717912
4:10:4:46:180398,1.24,2.23,-141.72,-0.12,0.02,0.98,0.987522152,0.94755453
4:10:4:46:180511,1.76,1.57,-141.79,-0.01,0.06,1.08,1.081711607,1.00648142
4:10:4:46:180607,1.87,1.18,-141.85,-0.06,0.14,0.88,0.893084542,0.987439434
4:10:4:46:180703,1.73,0.93,-141.81,0.03,-0.29,0.92,0.965090669,0.979962273
4:10:4:46:180815,1.62,0.63,-141.11,-0.13,0.08,0.89,0.902995017,0.920390076
4:10:4:47:181232,2.38,3.75,-146.15,0.19,0.1,1.03,1.052140675,0.973408787
4:10:4:47:181311,2.77,5.18,-148.69,0.17,0.17,1.19,1.214042833,1.056392841
4:10:4:47:181390,3.09,5.93,-150.98,0.04,0.19,1.24,1.255109557,1.173764355
4:10:4:47:181503,3.14,6.72,-152.73,-0.17,0.16,1.24,1.261784451,1.243645614
4:10:4:47:181598,2.71,7.33,-154.03,0.09,-0.16,1.18,1.194194289,1.237029432
4:10:4:47:181695,2.12,7.79,-154.57,0.11,-0.18,1.26,1.277536692,1.244505144
4:10:4:47:181790,1.4,8.16,-155.02,0.07,-0.18,1.22,1.235192293,1.235641091
4:10:4:48:182291,-1.06,7.89,-151.77,0.25,-0.08,0.93,0.966333276,1.15968742
4:10:4:48:182403,-0.97,7.59,-150.93,0.07,-0.1,0.97,0.977650244,1.059725271
4:10:4:48:182499,-0.83,7.09,-150.17,0.26,-0.09,1,1.037159583,0.993714368
4:10:4:48:182611,-0.75,6.72,-149.5,-0.04,-0.11,0.98,0.986965045,1.000591624
4:10:4:48:182707,-0.66,6.44,-148.95,-0.12,0.1,0.97,0.982496819,1.002207149
4:10:4:48:182804,-0.47,6.17,-148.55,-0.04,0.11,1.04,1.046565813,1.005342559
4:10:4:49:183214,-0.75,5.24,-146.87,0.05,0.09,0.97,0.975448615,1.001503749
4:10:4:49:183309,-0.88,5.05,-146.55,0.08,-0.1,0.92,0.928870282,0.983628236
4:10:4:49:183404,-1.15,4.81,-146.22,0.06,-0.06,0.99,0.99362971,0.965982869
4:10:4:49:183501,-1.13,4.44,-145.76,0,0.14,1.01,1.019656805,0.980718932
4:10:4:49:183597,-1.04,4.21,-145.27,-0.07,0.12,0.99,0.999699955,1.004328823
4:10:4:49:183725,-0.93,4.04,-144.97,0.09,0.1,0.97,0.979285454,0.999547405
4:10:4:49:183805,-0.42,3.99,-144.71,-0.01,-0.02,1.02,1.020245069,0.999743492
4:10:4:50:184209,0.17,4.8,-144.33,0.32,0.04,1.04,1.088852607,1.029461043
4:10:4:50:184289,0.33,4.7,-144.15,0.22,-0.07,0.9,0.929139387,1.012745687
4:10:4:50:184385,0.4,4.58,-144.04,0.09,0.11,0.93,0.940797534,0.986263176
4:10:4:50:184497,0.33,4.51,-143.97,0.28,-0.01,1.04,1.077079384,0.982338768
4:10:4:50:184609,0.12,4.45,-143.9,0.07,-0.02,0.91,0.912907443,0.976928121
4:10:4:50:184689,0.11,4.27,-143.8,0,0.2,0.96,0.980612054,0.990199627
4:10:4:50:184801,0.14,4.06,-143.77,0.17,-0.08,1.01,1.027326628,0.973615375
4:10:4:51:185215,1.43,4.62,-143.21,0.04,-0.17,1.1,1.113777357,1.040572013
4:10:4:51:185295,1.62,4.88,-143.24,0.05,-0.05,1,1.002496883,1.047866956
4:10:4:51:185407,1.74,4.84,-143.2,0.05,0.13,1.1,1.108783117,1.075019119
4:10:4:51:185519,1.78,4.62,-143.19,0.08,-0.03,1.08,1.083374358,1.064884786
4:10:4:51:185615,1.88,4.47,-143.09,0.19,-0.04,1.07,1.087474138,1.093210538
4:10:4:51:185696,1.66,4.17,-143.09,0.17,0.09,1.01,1.028153685,1.06633406
4:10:4:51:185791,1.58,4.33,-143.04,-0.13,0.15,1.01,1.029320164,1.048315996
4:10:4:52:186213,1.01,4.95,-143.67,-0.08,0.08,0.96,0.966643678,1.008039176
4:10:4:52:186308,1.17,4.83,-143.78,0.16,-0.09,1.03,1.046231332,1.014065058
4:10:4:52:186404,1.42,4.64,-143.79,0.28,-0.08,1,1.041537325,1.018137445
4:10:4:52:186516,1.74,4.27,-143.71,0.1,0,0.96,0.965194281,1.017654313
4:10:4:52:186612,1.96,4.07,-143.72,0.29,0.01,1.03,1.070093454,1.025608353
4:10:4:52:186708,2.25,3.92,-143.76,-0.18,0.17,1,1.030194156,1.021827297
4:10:4:52:186804,2.14,4.01,-143.9,0.09,-0.05,1.03,1.035132842,1.045140151
4:10:4:53:187209,-0.75,6.13,-144.4,0.12,0.13,1,1.015529419,1.026952139
4:10:4:53:187303,-0.17,6.07,-144.32,0.05,0.17,0.97,0.986052737,1.012238332
4:10:4:53:187399,0.57,5.79,-144.15,0.19,-0.1,0.92,0.944722181,0.982101446
4:10:4:53:187511,1.32,5.67,-144.02,0.05,-0.04,0.9,0.902274903,0.94434994
4:10:4:53:187607,2.14,5.91,-143.98,0.07,0.03,1.13,1.132563464,0.993186849
4:10:4:53:187702,2.49,5.87,-144.07,0.02,0.01,0.9,0.900277735,0.978372034
4:10:4:53:187798,2.46,5.59,-144.19,0.25,0.05,1,1.031988372,1.021609857
4:10:4:54:188290,1.93,4.5,-144.35,-0.01,0.09,1.07,1.073824939,1.002030349
4:10:4:54:188386,2.24,4.76,-144.05,-0.09,0.13,0.99,1.002546757,1.036120023
4:10:4:54:188498,2.5,4.77,-143.84,0.22,-0.06,0.9,0.928439551,1.001603749
4:10:4:54:188611,2.42,4.88,-143.7,0.2,0.02,0.98,1.00039992,0.977128743
4:10:4:54:188707,2.1,4.61,-143.84,0.04,-0.07,0.9,0.903603896,0.944147789
4:10:4:54:188802,1.65,4.59,-144.13,0.21,0.08,0.95,0.976217189,0.960073668
4:10:4:55:189313,0.32,3.46,-144.23,0.12,-0.11,0.88,0.894930165,0.924917083
4:10:4:55:189409,0.37,3.47,-144.15,0.19,0.04,0.98,0.999049548,0.956732301
4:10:4:55:189505,0.35,3.75,-144.09,-0.01,0.03,0.95,0.95052617,0.948168628
4:10:4:55:189617,0.34,3.66,-144.13,0.21,0.09,0.96,0.986813052,0.978796257
4:10:4:55:189713,0.44,3.81,-144.05,0.13,0.09,0.97,0.982802116,0.973380446
4:10:4:55:189841,0.47,4.27,-144.03,0.25,-0.12,0.94,0.980051019,0.983222063
4:10:4:56:190297,0.7,4.93,-143.76,0.1,0.1,1,1.009950494,0.990934543
4:10:4:56:190392,0.87,4.83,-143.75,0.06,0.19,0.96,0.980459076,0.99015353
4:10:4:56:190489,0.78,4.71,-143.8,0.17,-0.04,1.04,1.05456152,1.014990363
4:10:4:56:190616,0.59,4.64,-143.94,-0.1,0.04,0.92,0.926282894,0.987101164
4:10:4:56:190713,0.58,4.61,-144.1,0.24,-0.09,1.02,1.051712889,1.010852434
4:10:4:56:190809,0.85,4.65,-144.09,0.15,-0.06,0.96,0.973498844,0.983831542
4:10:4:57:191290,1.93,4.08,-143.84,0.1,-0.24,0.94,0.975294827,1.000168853
4:10:4:57:191387,2.61,3.85,-143.53,-0.03,-0.08,0.95,0.953834367,0.96754268
4:10:4:57:191499,3.36,3.59,-143.34,-0.06,-0.08,1.11,1.114495402,1.014541532
4:10:4:57:191610,3.55,3.92,-143.47,-0.09,-0.13,1.04,1.051950569,1.040093446
4:10:4:57:191706,3.15,4.33,-143.7,0.14,-0.19,0.92,0.94978945,1.03874514
4:10:4:57:191802,2.47,4.51,-143.87,0.08,-0.01,0.97,0.973344749,0.991694923
4:10:4:58:192297,0.67,3.91,-144.61,0.25,0.02,1.07,1.098999545,1.007377915
4:10:4:58:192393,0.37,4.36,-144.64,0.11,0,0.93,0.936482781,1.002942358
4:10:4:58:192489,0.28,4.81,-144.6,-0.16,-0.12,1.03,1.049237819,1.028240048
4:10:4:58:192601,0.23,5.52,-144.46,0.27,0.01,1,1.035857133,1.007192578
4:10:4:58:192697,0.35,5.82,-144.24,0.04,0.06,1.07,1.072427154,1.052507368
4:10:4:58:192840,0.5,5.6,-144.12,0.28,0.05,1.08,1.116825859,1.075036715
4:10:4:59:193307,0.04,5.71,-144.19,0.17,-0.12,0.96,0.982293235,1.057182083
4:10:4:59:193404,-0.07,5.71,-144.31,0.09,-0.14,0.95,0.964468766,1.021195953
4:10:4:59:193500,-0.11,5.45,-144.47,-0.05,-0.14,1.09,1.100090905,1.015617635
4:10:4:59:193612,0.1,5.28,-144.55,0.1,-0.02,0.97,0.975346092,1.013301921
4:10:4:59:193692,0.35,5.25,-144.48,-0.3,0.09,1.07,1.114899099,1.063445365
4:10:4:59:193835,0.44,5.16,-144.44,0.07,0.17,1.01,1.026596318,1.03894717
4:10:5:0:194221,0.85,4.64,-144.36,0.13,0.1,0.94,0.954201237,1.031898884
4:10:5:0:194299,0.88,4.67,-144.33,0.2,-0.01,0.98,1.000249969,0.993682508
4:10:5:0:194395,0.83,4.55,-144.32,0.16,0.09,0.93,0.947945146,0.96746545
4:10:5:0:194492,0.65,4.65,-144.22,-0.1,0.15,0.91,0.927685291,0.958626802
4:10:5:0:194620,0.62,4.49,-144.23,0.15,-0.16,0.94,0.965246083,0.94695884
4:10:5:0:194700,0.83,4.52,-144.25,0.28,-0.09,0.95,0.994484791,0.962472055
4:10:5:0:194812,0.94,4.68,-144.19,-0.07,0.11,0.93,0.939095309,0.966275394
4:10:5:1:195298,1.76,4.2,-144.04,0.1,0.08,1.07,1.077636302,1.003738801
4:10:5:1:195457,1.63,4.45,-144.09,0.13,0.08,0.96,0.972059669,0.99626376
4:10:5:1:195506,1.51,4.66,-144.01,0.08,0.1,0.97,0.978417089,1.00937102
4:10:5:1:195636,1.37,4.54,-143.98,0.05,0.07,1.09,1.093389226,1.014621995
4:10:5:1:195713,1.18,4.5,-143.96,0.07,0.14,0.96,0.972676719,1.014827678
4:10:5:2:195842,1.14,4.56,-143.91,0.29,0.06,0.96,1.004639239,1.023568395
4:10:5:2:196313,1.15,4.15,-143.79,-0.01,0.19,1,1.017939094,0.998418351
4:10:5:2:196409,0.9,4.22,-143.66,0.1,0.1,1.03,1.039663407,1.020747247
4:10:5:2:196520,0.63,4.32,-143.55,0.13,0.03,0.98,0.989039939,1.01554748
4:10:5:2:196617,0.66,4.14,-143.5,0.15,-0.17,1.05,1.074197375,1.03430024
4:10:5:2:196713,0.75,3.93,-143.48,-0.11,0.03,1.03,1.036291465,1.033176259
4:10:5:2:196809,0.86,3.99,-143.42,-0.12,0.08,1.06,1.06976633,1.060085056
4:10:5:3:197381,0.82,3.9,-143.55,0.17,0.1,0.9,0.921357694,1.009138496
4:10:5:3:197398,0.96,3.69,-143.62,0.01,-0.02,0.97,0.970257698,0.98712724
4:10:5:3:197510,1.06,3.57,-143.76,0.03,-0.04,1.04,1.041201229,0.97760554
4:10:5:3:197605,1.33,3.5,-143.79,0.03,0.09,0.93,0.934826187,0.982095038
4:10:5:3:197701,1.46,3.54,-143.75,-0.09,0,1.02,1.02396289,0.999996769
4:10:5:3:197814,1.66,3.51,-143.9,-0.07,0.17,1.01,1.026596318,0.995128465
4:10:5:4:198303,1.81,3.7,-144.69,0.12,0.01,0.9,0.908019824,0.98619301
4:10:5:4:198399,1.72,3.47,-144.67,0.31,0,0.9,0.951892851,0.962169664
4:10:5:4:198495,1.64,3.39,-144.7,0.05,0.14,1.06,1.070373766,0.976762147
4:10:5:4:198591,1.41,3.62,-144.71,0.03,0.26,1.01,1.043359957,1.021875525
4:10:5:4:198704,1.16,3.7,-144.77,-0.2,0.07,0.99,1.012422837,1.042052187
4:10:5:4:198799,1.11,3.91,-144.74,-0.09,0.24,1,1.032327467,1.029370087
4:10:5:5:199314,0.95,3.85,-145.08,0.13,0.08,0.98,0.991816515,1.01218894
4:10:5:5:199410,0.83,3.81,-145.11,0.04,-0.27,0.93,0.969226496,0.997790159
4:10:5:5:199490,0.87,3.49,-145.09,-0.02,-0.02,0.88,0.880454428,0.947165813
4:10:5:5:199618,0.95,3.29,-145.04,0.12,0.12,0.98,0.994585341,0.948088755
4:10:5:5:199697,1.21,3.27,-145.06,0.24,-0.12,1.01,1.045035885,0.973358551
4:10:5:5:199794,1.32,3.23,-145.14,-0.04,0.09,0.98,0.984936546,1.008185924
4:10:5:6:199906,1.27,3.25,-145.2,0.12,-0.02,0.89,0.898276127,0.976082853
4:10:5:6:200303,0.44,3.89,-145.27,0,-0.09,0.96,0.964209521,0.949140731
4:10:5:6:200447,0.37,3.83,-145.27,-0.01,0.05,1,1.001299156,0.954594935
4:10:5:6:200526,0.35,3.77,-145.28,0.34,-0.15,0.88,0.955248659,0.973585779
4:10:5:6:200590,0.27,3.82,-145.33,0.25,0.09,0.98,1.015381702,0.990643172
4:10:5:6:200703,0.22,3.73,-145.4,-0.13,0.05,0.97,0.979948978,0.983526446
4:10:5:6:200799,0.19,3.78,-145.44,0.24,-0.04,0.88,0.913016977,0.969449219
4:10:5:7:200895,0.18,3.61,-145.39,0.19,-0.16,0.98,1.010989614,0.96798519
4:10:5:7:201312,-0.16,2.78,-145.21,-0.13,0.01,1.02,1.028299567,0.984102053
4:10:5:7:201392,0.22,2.94,-145.17,-0.14,0.02,0.99,1.000049999,1.01311306
4:10:5:7:201521,0.52,3.28,-145.26,0.02,0.18,0.97,0.986762383,1.005037316
4:10:5:7:201617,0.71,3.71,-145.34,0.02,0.04,1.03,1.030970417,1.005927599
4:10:5:7:201696,0.9,3.59,-145.39,-0.12,-0.2,1,1.026839812,1.014857537
4:10:5:7:201840,0.77,3.43,-145.47,-0.11,0.14,0.98,0.996042168,1.017950799
4:10:5:8:201920,0.62,3.47,-145.55,0.1,-0.02,1.03,1.035036231,1.01930607
4:10:5:8:202312,-0.06,2.36,-145.59,0.12,0.19,1.02,1.044461584,1.025179994
4:10:5:8:202408,-0.4,2.49,-145.61,-0.13,0.1,1.09,1.102270384,1.0605894
4:10:5:8:202520,-0.29,2.61,-145.6,-0.15,0.25,1.03,1.070467188,1.072399719
4:10:5:8:202632,-0.26,2.69,-145.63,0.1,-0.13,0.97,0.983768265,1.052168612
4:10:5:8:202712,-0.03,2.59,-145.67,0.11,0.13,1.07,1.083466658,1.045900704
4:10:5:8:202824,0.25,3.03,-145.71,-0.13,-0.06,0.98,0.990403958,1.019212961
4:10:5:9:202920,0.34,2.87,-145.77,-0.2,0.03,1.08,1.098772042,1.057547553
4:10:5:9:203445,0.39,3.42,-146.43,0.16,-0.03,1.03,1.042784733,1.043986911
4:10:5:9:203445,0.34,3.34,-146.62,0.1,-0.01,0.93,0.935414347,1.025657041
4:10:5:9:203509,0.19,3.37,-146.82,0.12,-0.06,0.93,0.939627586,0.972608889
4:10:5:9:203589,-0.12,3.7,-147.04,0.02,0.01,0.98,0.980255069,0.951765667
4:10:5:9:203717,-0.14,3.53,-147.19,0.03,0,1.08,1.080416586,1.000099747
4:10:5:9:203813,-0.12,3.19,-147.33,0.38,-0.1,1,1.074430081,1.045033912
4:10:5:10:204300,-0.82,2.18,-148.27,0.06,0.06,1.05,1.053422992,1.06942322
4:10:5:10:204556,-1.2,1.66,-148.18,0.1,-0.2,0.95,0.975961065,1.034604713
4:10:5:10:204573,-1.5,1.22,-147.72,-0.07,0.1,1.07,1.07694011,1.035441389
4:10:5:10:204716,-1.76,1.14,-147.18,0,-0.02,0.94,0.940212742,0.997704639
4:10:5:10:204732,-2.01,0.97,-146.59,-0.01,0.07,0.92,0.92271339,0.979955414
4:10:5:10:204796,-2.06,1.17,-146.12,-0.04,0.03,0.93,0.931343116,0.931423083
4:10:5:11:205315,-0.02,3.17,-146.02,-0.02,-0.13,1.06,1.068129206,0.974061904
4:10:5:11:205410,0.47,3.5,-146.1,0.03,0.03,1.04,1.040865025,1.013445782
4:10:5:11:205506,0.73,3.63,-146.09,0.27,-0.11,1.01,1.051237366,1.053410532
4:10:5:11:205602,0.8,3.8,-146.06,0.07,0.04,0.92,0.923525852,1.005209414
4:10:5:11:205730,0.79,3.7,-145.97,0,-0.07,0.91,0.912688337,0.962483852
4:10:5:11:205810,0.76,3.56,-145.86,-0.06,0.01,1.02,1.021812116,0.952675435
4:10:5:12:206316,-0.01,2.84,-144.99,-0.05,-0.02,1,1.00144895,0.978649801
4:10:5:12:206429,-0.1,2.8,-145.06,-0.15,0.14,0.91,0.93284511,0.985368725
4:10:5:12:206524,-0.33,2.91,-145.03,0.15,0.02,0.95,0.961977131,0.96542373
4:10:5:12:206620,-0.46,2.48,-144.94,0.11,-0.09,1.08,1.089311709,0.994711317
4:10:5:12:206732,-0.62,2.28,-144.8,0.01,0.06,0.98,0.98188594,1.01105826
4:10:5:12:206795,-0.58,1.95,-144.71,0.31,-0.03,0.88,0.933488082,1.001561911
4:10:5:13:207328,0.21,2.04,-144.1,-0.15,0.04,0.96,0.972471079,0.962615034
4:10:5:13:207424,0.64,1.86,-144.01,0.06,0.01,0.99,0.991866927,0.965942029
4:10:5:13:207504,0.96,1.73,-143.99,-0.01,-0.05,1.05,1.051237366,1.005191791
4:10:5:13:207599,1.46,1.4,-144.44,-0.24,0.16,0.96,1.002397127,1.01516714
4:10:5:13:207712,1.64,1.55,-144.73,0.09,0,1.03,1.033924562,1.029186352
4:10:5:14:207919,1.64,1.12,-144.94,-0.16,0.01,1,1.012768483,1.016363391
4:10:5:14:208300,-0.04,1.09,-144.32,0.15,0.02,0.99,1.001498877,1.016063974
4:10:5:14:208460,0.11,1.41,-144.28,0.06,0.15,0.86,0.875042856,0.963103405
4:10:5:14:208540,0.3,1.79,-144.18,0.14,-0.07,0.98,0.992421282,0.956321005
4:10:5:14:208604,0.92,1.95,-144.09,-0.14,0.02,1.02,1.029757253,0.965740464
4:10:5:14:208700,1.34,2.14,-144.06,0.16,0.04,0.95,0.964209521,0.995462685
4:10:5:14:208812,1.51,2.38,-144.05,0.21,-0.04,1.03,1.051950569,1.015305781
4:10:5:15:208892,1.72,2.3,-144.06,-0.04,0.03,0.85,0.851469318,0.955876469
4:10:5:15:209355,1.44,2.73,-144.14,0.07,-0.14,1.02,1.031939921,0.978453269
4:10:5:15:209435,1.41,2.94,-144.06,0.01,0.08,0.87,0.873727646,0.919045628
4:10:5:15:209531,1.4,2.94,-144.02,0.09,-0.12,1.06,1.070560601,0.992076056
4:10:5:15:209611,1.34,2.74,-144.01,0.05,0.14,1,1.010989614,0.98509262
4:10:5:15:209706,1.47,2.91,-143.96,0.08,-0.09,0.94,0.947681381,1.009743865
4:10:5:15:209818,1.51,2.72,-143.94,0.11,-0.04,1.03,1.036629153,0.998433383
4:10:5:16:210298,0.79,2.5,-144.13,0.29,-0.1,0.96,1.007819428,0.997376654
4:10:5:16:210410,0.78,2.65,-144.11,-0.1,-0.03,0.93,0.935841867,0.993430149
4:10:5:16:210506,0.81,2.61,-144.15,0.12,0.12,1,1.014297787,0.985986361
4:10:5:16:210601,0.86,2.65,-144.2,0.1,-0.03,0.99,0.995489829,0.981876494
4:10:5:16:210730,0.94,2.57,-144.24,-0.04,-0.03,0.96,0.961301201,0.990362939
4:10:5:16:210794,1.28,2.51,-144.14,-0.01,0.1,1.03,1.034891299,0.997227443
4:10:5:17:210890,1.37,2.5,-144.03,-0.29,0.14,0.95,1.00309521,0.99976257
4:10:5:17:211310,1.18,2.68,-144.08,0.16,-0.12,0.93,0.951262319,0.996416276
4:10:5:17:211437,0.96,2.66,-144.08,-0.08,-0.02,0.85,0.853990632,0.936116054
4:10:5:17:211501,0.99,2.83,-144.09,0.11,-0.12,1.05,1.062544117,0.955932356
4:10:5:17:211597,1.03,3,-144.05,0.09,0.08,0.98,0.987370245,0.967968331
4:10:5:17:211726,0.98,3.06,-143.97,0.05,0.08,0.87,0.875099994,0.975004785
4:10:5:17:211837,0.84,3.22,-144,0.22,0.07,0.92,0.948525171,0.93699847
4:10:5:18:212333,1.02,3.79,-144.67,0.14,-0.07,1.02,1.031939921,0.951855029
4:10:5:18:212461,1.2,3.83,-144.67,-0.04,-0.15,0.9,0.913290753,0.964585282
4:10:5:18:212509,1.26,4.07,-144.72,0.36,-0.03,0.96,1.02571926,0.990316645
4:10:5:18:212621,1.32,4.09,-144.68,0,0.04,0.92,0.920869155,0.953293056
4:10:5:18:212701,1.39,3.94,-144.72,0.02,0.04,0.86,0.861162006,0.935916807
4:10:5:18:212813,1.16,3.92,-144.79,-0.06,0.06,1.05,1.053422992,0.945151384
4:10:5:19:213327,0.79,3.12,-145.02,0.18,0.02,0.91,0.92784697,0.947477323
4:10:5:19:213391,0.87,3.04,-145.08,0.24,-0.12,1.05,1.083743512,1.021671158
4:10:5:19:213503,0.66,2.8,-145.19,0.09,-0.01,1.02,1.024011719,1.0118674
4:10:5:19:213615,0.64,2.71,-145.22,0.13,0.08,0.92,0.932577075,1.013444102
4:10:5:19:213839,0.81,2.4,-145.26,0.2,-0.02,0.99,1.010198,0.988928931
4:10:5:20:213855,0.91,2.44,-145.26,0.13,-0.15,1.05,1.068597211,1.003790762
4:10:5:20:214441,0.81,2.91,-145.5,0.04,0.1,1.02,1.025670512,1.034821908
4:10:5:20:214441,0.92,2.92,-145.41,0.25,0.01,0.98,1.011434625,1.035234116
4:10:5:20:214490,0.98,2.56,-145.28,0.32,-0.19,0.97,1.038941769,1.025348969
4:10:5:20:214617,0.8,2.55,-145.09,0,-0.12,0.86,0.868331734,0.972902709
4:10:5:20:214729,0.65,2.55,-144.89,0.29,-0.04,0.87,0.917932459,0.941735321
4:10:5:21:214889,0.59,2.5,-144.77,0.11,-0.16,1.06,1.077636302,0.954633499
4:10:5:21:215345,-0.28,2.41,-144.37,-0.24,0.17,1.01,1.051950569,1.015839777
4:10:5:21:215409,-0.41,2.31,-144.38,-0.12,0.18,1.01,1.032908515,1.054165129
4:10:5:21:215537,-0.5,2.32,-144.4,-0.01,0.1,1.03,1.034891299,1.039916794
4:10:5:21:215745,-0.62,2.11,-144.29,-0.31,0.18,1.03,1.090596167,1.05279866
4:10:5:21:215745,-0.62,2.08,-144.11,-0.12,0.15,1.02,1.037930634,1.0544727
4:10:5:21:215792,-0.66,2.08,-143.99,0.08,0.05,1.03,1.034311365,1.054279389
4:10:5:22:216324,-0.11,1.9,-144.01,-0.03,-0.1,0.89,0.896102673,0.989448224
4:10:5:22:216561,-0.16,2.14,-144,0.07,-0.08,0.93,0.936055554,0.955489864
4:10:5:22:216578,-0.04,2.19,-144.04,0.12,-0.12,1.02,1.034021276,0.955393168
4:10:5:22:216673,0.11,2.23,-144.13,-0.03,-0.04,0.93,0.931343116,0.967139982
4:10:5:22:216754,0.3,2.41,-144.23,-0.02,-0.07,0.94,0.942814934,0.969393109
4:10:5:22:216818,0.15,2.28,-144.32,0.05,-0.26,1.03,1.063484838,0.979214296
4:10:5:23:217288,0.59,2.05,-144.03,0.18,-0.1,1.03,1.050380883,1.018893552
4:10:5:23:217433,0.64,2.17,-144.01,0.27,-0.01,0.99,1.026206607,1.046690776
4:10:5:23:217497,0.81,2.45,-144,0.02,0.09,0.98,0.984327181,1.020304891
4:10:5:23:217593,0.87,2.47,-144.02,0.16,-0.04,0.93,0.944510455,0.985014748
4:10:5:23:217704,1.03,2.77,-144.1,0.09,-0.12,0.91,0.922279784,0.950372474
4:10:5:23:217832,1.27,3.22,-144.25,-0.1,-0.02,1.05,1.054940757,0.973910332
4:10:5:24:218350,0.83,3.15,-145.07,0.22,0.05,1.04,1.064189833,1.013803458
4:10:5:24:218446,0.79,2.82,-145.26,0.1,0.09,1,1.009009415,1.042713335
4:10:5:24:218574,0.76,2.53,-145.45,0.18,-0.05,1.04,1.056645636,1.043281628
4:10:5:24:218638,0.87,2.16,-145.51,0.1,0.08,0.97,0.978417089,1.014690713
4:10:5:24:218750,0.85,1.69,-145.36,0.35,-0.08,0.96,1.024939023,1.020000583
4:10:5:24:218798,0.54,1.64,-145.08,0.15,-0.22,0.96,0.996242942,0.999866351
4:10:5:25:219311,0.22,3.04,-143.82,-0.06,-0.06,0.97,0.973704267,0.998295411
4:10:5:25:219456,1.44,3.72,-144.18,0.03,-0.01,1.06,1.060471593,1.010139601
4:10:5:25:219552,2.14,4.29,-144.5,-0.02,0.05,0.91,0.911592014,0.981922625
4:10:5:25:219600,2.48,4.45,-144.96,0.06,-0.12,0.89,0.900055554,0.957373054
4:10:5:25:219696,2.37,4.45,-145.28,0.18,-0.21,0.97,1.008662481,0.94010335
4:10:5:25:219792,1.59,4.68,-145.56,0.08,0.06,0.9,0.905538514,0.938085516
4:10:5:26:220813,0.56,2.52,-145.23,-0.07,0.09,0.97,0.976678043,0.963626346
4:10:5:27:220877,0.68,2.38,-144.96,0.16,0.02,0.86,0.874985714,0.919067424
4:10:5:27:220917,0.68,2.36,-144.73,0.07,-0.05,1,1.00369318,0.951785646
4:10:5:27:220917,0.49,2.64,-144.47,0.05,-0.01,1.09,1.091192009,0.989956968
4:10:5:27:220918,0.48,2.73,-144.19,0.19,-0.01,0.95,0.968865316,1.021250168
4:10:5:27:220934,0.57,2.75,-143.92,-0.17,0.06,0.91,0.927685291,0.995914205
4:10:5:27:221318,1.76,3.9,-143.44,-0.17,-0.01,1.05,1.063719888,0.986756832
4:10:5:27:221398,1.71,3.86,-143.65,0.19,-0.12,0.94,0.966488489,0.985964556
4:10:5:27:221557,1.59,3.43,-143.68,-0.12,-0.02,0.9,0.908185003,0.97946446
4:10:5:27:221605,1.57,3.54,-143.74,0.18,0.01,0.91,0.927685291,0.934119595
4:10:5:27:221733,1.93,3.82,-143.89,-0.09,0.16,1.06,1.075778788,0.970549694
4:10:5:27:221797,2.61,3.77,-144.13,0.27,0.06,1.04,1.076150547,1.026538209
4:10:5:28:221940,3.4,3.63,-144.37,-0.13,0.2,0.97,0.998899394,1.050276243
4:10:5:28:222339,4.3,4.51,-145.15,0.01,0.03,0.97,0.970515327,1.015188423
4:10:5:28:222436,4.11,4.68,-145.4,0.15,0.11,1.01,1.026985881,0.998800201
4:10:5:28:222498,3.72,4.62,-145.61,0.25,-0.11,1.02,1.055935604,1.017812271
4:10:5:28:222627,3.11,4.34,-145.68,0.09,-0.07,0.96,0.966747123,1.016556203
4:10:5:28:222707,2.54,3.59,-145.74,0.09,0.12,0.95,0.961769203,0.99481731
4:10:5:28:222835,1.77,2.85,-145.75,-0.13,-0.09,0.99,1.002546757,0.977021028
4:10:5:29:223293,1.17,3.15,-145.94,-0.01,0.16,0.93,0.943716059,0.969344006
4:10:5:29:223517,1.55,3.71,-145.85,0.03,-0.03,0.9,0.900999445,0.94908742
4:10:5:29:223517,1.72,4.53,-145.75,0.14,0.18,0.98,1.006180898,0.950298801
4:10:5:29:223677,1.98,5.16,-145.69,0.14,-0.05,0.96,0.971442227,0.959540857
4:10:5:29:223693,2.27,5.78,-145.74,0.13,0.06,0.97,0.980510071,0.986044399
4:10:5:29:223805,2.36,5.91,-145.82,0.08,-0.03,1.01,1.013607419,0.988519906
4:10:5:30:224394,1.13,3.1,-145.86,0.15,-0.1,0.94,0.95713113,0.98374954
4:10:5:30:224427,0.72,2.64,-145.65,0.08,0.1,1.05,1.057780696,1.009506415
4:10:5:30:224523,0.43,2.24,-145.47,0.19,-0.06,1,1.019656805,1.011522877
4:10:5:30:224650,0.17,2.06,-145.46,0.37,0.09,1.02,1.088760763,1.055399421
4:10:5:30:224746,0.27,2.2,-145.48,0.07,-0.16,1.07,1.08415866,1.064192076
4:10:5:31:224842,0.62,2.3,-145.5,0.2,0.14,1.03,1.058536726,1.07715205
4:10:5:31:225339,2.43,4.28,-145.36,-0.04,-0.05,0.96,0.962133047,1.034942811
4:10:5:31:225499,2.94,5.01,-145.25,0.07,0.13,0.91,0.921900212,0.980856661
4:10:5:31:225514,3.18,5.46,-145.37,-0.17,0.09,0.96,0.979081202,0.954371487
4:10:5:31:225626,3.29,5.2,-145.52,-0.01,0.06,0.94,0.941966029,0.947649148
4:10:5:31:225691,3,4.62,-145.67,0.25,-0.06,0.98,1.013163363,0.978070198
4:10:5:31:225819,2.54,3.91,-145.77,0.07,0.02,1.06,1.062497059,1.005875484
4:10:5:32:226432,0.14,0.91,-145.82,-0.05,-0.09,0.98,0.985393322,1.020351248
4:10:5:32:226432,0,0.95,-145.94,0.15,0.04,0.87,0.883742044,0.977210808
4:10:5:32:226543,0.14,1.27,-146.08,-0.15,0.2,0.98,1.011385189,0.960173518
4:10:5:32:226608,0.45,2.14,-146.06,0.28,0.11,0.94,0.986965045,0.960697426
4:10:5:32:226720,1.01,3.12,-145.88,-0.09,-0.12,0.93,0.942019108,0.980123114
4:10:5:32:226815,1.95,4.34,-145.6,0.12,-0.01,0.98,0.987370245,0.972118133
4:10:5:33:227323,2.3,4.27,-146.09,0.16,0.03,0.99,1.003294573,0.977561309
4:10:5:33:227387,1.57,3.58,-146.03,0.07,0.03,0.92,0.923146792,0.971270537
4:10:5:33:227498,0.79,2.64,-146.11,-0.19,-0.13,0.96,0.987218314,0.971219893
4:10:5:33:227738,0.24,2.08,-145.9,0.05,0.25,0.93,0.964313227,0.958226111
4:10:5:33:227738,-0.12,1.51,-145.48,-0.17,0.15,0.92,0.947523087,0.966351543
4:10:5:33:227787,-0.62,1.18,-145.26,0.14,-0.13,0.92,0.939627586,0.950487967
4:10:5:34:228309,1.25,3.68,-145.14,-0.14,0.27,1.01,1.054798559,0.980649744
4:10:5:34:228629,1.67,4.48,-144.99,0.01,0.31,1.03,1.075685828,1.023370658
4:10:5:34:228831,2.38,5.23,-144.78,0.09,0.06,1,1.005832988,1.045439125
4:10:5:34:228831,3.19,5.95,-144.58,0.24,-0.04,1,1.029174426,1.036897747
4:10:5:34:228831,3.76,6.35,-144.58,0.21,-0.23,1.02,1.066489569,1.033832328
4:10:5:35:228863,3.74,6.03,-144.73,0.23,-0.14,0.96,0.997045636,1.03090321
4:10:5:35:229375,0.94,2.94,-144.6,0.34,-0.1,0.88,0.948683298,1.004072834
4:10:5:35:229422,0.49,2.87,-144.43,-0.08,0,1.05,1.053043209,0.999590714
4:10:5:35:229503,0.44,2.55,-144.2,0.35,-0.06,0.98,1.042353107,1.014693205
4:10:5:35:229679,0.5,2.54,-144,0.06,0.07,1.12,1.123788236,1.073061517
4:10:5:35:229694,0.66,2.71,-143.82,0.15,-0.17,0.98,1.005882697,1.057341347
4:10:5:35:229823,1.15,3.09,-143.76,0,0.24,0.96,0.98954535,1.039738761
4:10:5:36:229912,1.56,3.37,-143.91,0.19,0.09,0.95,0.972985098,0.989471048
4:10:5:36:230406,3.22,4.09,-144.13,0.3,0.2,0.77,0.850235262,0.93758857
4:10:5:36:230535,3.56,4.54,-144.05,-0.21,0.08,0.71,0.74471471,0.855978357
4:10:5:36:230582,3.71,4.84,-143.94,0.06,-0.12,0.68,0.693108938,0.762686303
4:10:5:36:230598,3.93,4.79,-143.98,0.17,0.01,0.72,0.739864853,0.725896167
4:10:5:36:230710,4.09,4.56,-143.99,0.24,0.08,0.67,0.716170371,0.716381387
4:10:5:37:230870,4.27,4.29,-144.04,0.14,-0.03,0.71,0.724292758,0.726775994
4:10:5:37:231299,4.49,4.17,-144.67,-0.14,0.06,0.8,0.814370923,0.751611351
4:10:5:37:231459,4.47,4.25,-144.87,0.43,0.22,0.72,0.867006344,0.801890008
4:10:5:37:231491,4.35,4.13,-144.98,-0.02,0.1,0.89,0.895823643,0.85906697
4:10:5:38:232110,4.38,4.03,-145.06,0,0.01,0.86,0.860058138,0.874296042
4:10:5:38:232111,4.48,3.94,-145.07,-0.13,0.09,0.9,0.913783344,0.889888375
4:10:5:38:232111,4.61,3.67,-145.13,-0.01,-0.02,0.96,0.960260381,0.911367288
4:10:5:38:232174,4.57,3.6,-145.17,0.06,0.17,0.84,0.859127464,0.911057063
4:10:5:38:232428,4.29,3.45,-145.25,0.07,0.17,0.95,0.967625961,0.929004602
4:10:5:38:232501,4.09,3.48,-145.38,-0.08,0.02,0.98,0.983463268,0.936738898
4:10:5:38:232502,3.9,3.4,-145.52,0.1,-0.08,0.86,0.869482605,0.940190611
4:10:5:38:232614,3.68,3.42,-145.68,-0.11,0.09,0.96,0.970463807,0.94113656
4:10:5:39:233109,3.59,3.23,-145.77,0.29,-0.02,1.06,1.099136024,0.979694145
4:10:5:39:233109,3.57,3.34,-145.9,-0.07,0.11,0.9,0.909395404,0.992998412
4:10:5:39:233305,3.53,3.42,-146.31,-0.16,0.21,0.93,0.966747123,0.991759517
4:10:5:39:233449,3.47,3.43,-146.38,-0.06,0.18,0.98,0.998198377,0.958113635
4:10:5:39:233561,3.38,3.4,-146.3,0.08,-0.16,0.98,0.996192752,0.987046084
4:10:5:39:233673,2.38,8.42,-142.55,-0.51,0.37,1.68,1.794268653,1.262886594
4:10:5:39:233754,-6.96,4.49,-124.42,-0.12,-0.01,0.07,0.139283883,0.976581763
4:10:5:39:233817,-31.12,35.47,-126.52,0.78,-0.34,-0.01,0.850940656,0.928164397
4:10:5:40:234296,-34.97,23.77,94.81,-0.07,0.01,-0.1,0.122474487,0.370899675
4:10:5:40:234505,-32.14,26.39,71.72,-0.1,0.01,-0.05,0.112249722,0.361888288
4:10:5:40:234520,-35.53,28.87,42.6,-0.04,-0.02,-0.01,0.045825757,0.093516655
4:10:5:40:234616,-41.84,27.05,12.66,-0.04,0.01,0,0.041231056,0.066435512
4:10:5:41:234920,-49.08,18.19,-15.69,0.04,0.02,-0.04,0.06,0.049018938
4:10:5:41:234952,-50.05,1.77,-35.79,0.02,-0.08,0.05,0.096436508,0.065889188
4:10:5:42:235928,16.93,-30.31,-59.48,0,0.1,0.32,0.335261092,0.1638992
4:10:5:42:235929,18.64,-23.92,-71.14,0.27,0.06,0.59,0.651613382,0.361103661
4:10:5:42:235957,23.85,-37.12,-93.24,-0.06,-0.14,1.55,1.55746589,0.848113455
4:10:5:42:235957,39.15,-47.32,-113.09,-0.45,-0.27,2.04,2.106418762,1.438499345
4:10:5:42:235973,27.98,-46.52,-107.26,-0.09,-0.08,1.93,1.933752828,1.86587916
4:10:5:42:236069,42.73,-48.7,-113.74,0.06,0.61,2.36,2.438298587,2.159490059
4:10:5:42:236330,16.82,-1.38,-111.28,-0.26,-0.17,1.63,1.659337217,2.010462877
4:10:5:42:236425,13.67,4.8,-94.23,-0.17,-0.14,1.03,1.053280589,1.716972131
4:10:5:42:236662,11.37,-0.4,-68.58,-0.22,-0.07,0.85,0.880795095,1.197804301
4:10:5:42:236662,6,-3.43,-39.71,-0.16,-0.13,0.69,0.720138875,0.884738187
4:10:5:42:236726,-1.65,-14.35,-6.4,-0.29,-0.13,0.89,0.945039682,0.848657884
4:10:5:42:236807,-17.93,-18.08,30.72,-0.58,-0.28,1.3,1.450792887,1.038657148
4:10:5:43:237346,79.46,-11.67,169.96,-0.33,-0.22,1.17,1.235394674,1.210409081
4:10:5:43:237410,101,-39.48,167.28,-0.27,-0.11,0.78,0.832706431,1.172964664
4:10:5:43:237522,151.11,-67.13,129.11,-0.27,-0.16,0.47,0.565154846,0.877751984
4:10:5:43:237618,-117.22,-40.42,49.14,-0.33,-0.14,0.3,0.467439836,0.621767038
4:10:5:43:237697,-90.18,16.75,43.17,-0.28,0.23,0.71,0.797119815,0.609904832
4:10:5:43:237826,-82.38,56.13,40.9,0,0.34,0.36,0.495176736,0.586578796
4:10:5:44:238324,-10.95,-31.5,12.01,0,0.07,1.2,1.202039933,0.831445495
4:10:5:44:238420,-78.27,17.51,54.87,-0.84,-1.31,2.26,2.743956997,1.480391222
4:10:5:44:238532,-57.73,42.25,97.96,-0.7,-0.63,1.11,1.455678536,1.800558488
4:10:5:44:238628,15.41,51.62,149.58,-0.52,-0.27,0.71,0.920543318,1.706726284
4:10:5:44:238820,61.25,15.53,-161.36,-0.58,-0.06,0.88,1.055651458,1.14395777
4:10:5:45:238916,60.07,-10.73,-136.12,-0.28,0.06,0.78,0.830903123,0.9356993
4:10:5:45:239315,-55.9,5.44,85.65,-0.37,-0.46,1.12,1.266056871,1.050870484
4:10:5:45:239443,-48.98,-15.64,77.14,-0.48,-0.48,1.26,1.431223253,1.176061082
4:10:5:45:239522,-52.57,-13.2,86.3,-0.6,-0.46,1.24,1.452308507,1.38319621
4:10:5:46:240082,-47.75,-10.72,96.04,-0.45,-0.37,1.04,1.192057046,1.358529602
4:10:5:46:240519,-48.81,-9.33,113.79,-0.47,-0.34,1.01,1.164731729,1.269699094
4:10:5:46:240519,-52.81,5.37,133.48,-0.5,-0.24,1.07,1.205197079,1.187328618
4:10:5:46:240695,-70.24,27.82,137.19,-0.13,-0.16,0.7,0.729725976,1.033218261
4:10:5:46:240743,-63.08,35.22,141.23,-0.18,-0.16,0.74,0.778203058,0.904375371
4:10:5:46:240792,-46.83,42.51,152.93,-0.26,-0.19,0.79,0.85311195,0.787013662
4:10:5:47:241127,-26.12,41.43,174.3,-0.38,-0.21,0.98,1.071867529,0.901060846
4:10:5:47:241341,-17.21,34.72,-175.39,-0.44,-0.22,1.06,1.168588893,1.031189457
4:10:5:47:241581,-20.96,24.68,179.78,-0.55,-0.3,1.14,1.300807442,1.180421288
4:10:5:48:242022,-39.8,-1.59,149.95,-0.31,-0.21,0.98,1.049094848,1.172830394
4:10:5:48:242090,-39.09,14.81,170.92,-0.33,-0.16,1,1.0651291,1.138343797
4:10:5:48:242090,-30.6,26.9,-170.21,-0.31,-0.09,1.01,1.060330137,1.058184695
4:10:5:48:242091,-28.15,31.59,-162.42,-0.31,-0.09,0.96,1.012817851,1.046092363
4:10:5:48:242091,-36.22,32.43,-166.44,-0.22,-0.1,0.85,0.883685464,0.985611151
4:10:5:48:242091,-47.89,29.75,-176.62,-0.17,-0.17,0.86,0.892972564,0.929825293
4:10:5:48:242372,18.37,26.03,-88.61,-0.33,-0.07,1.12,1.169700816,0.982119615
4:10:5:48:242670,8.32,19.52,-101.47,-0.45,-0.12,1.13,1.222211111,1.094961497
4:10:5:48:242686,-12.63,16.92,-125.09,-0.55,-0.3,1.17,1.327177456,1.239696461
4:10:5:48:242766,-30.1,7.44,-154.82,-0.56,-0.39,1.22,1.397891269,1.315759945
4:10:5:49:242844,-36.21,-3.17,-179.8,-0.4,-0.43,1.18,1.318066766,1.34771183
4:10:5:49:242844,-34.05,-5.27,170.3,-0.28,-0.4,1.14,1.24016128,1.318706438
4:10:5:49:243771,-0.57,-7.68,-133.03,-0.32,-0.12,0.86,0.925418824,1.161215623
4:10:5:49:243811,-4.57,-2.2,-148.07,-0.31,-0.18,0.84,0.913290753,1.026290286
4:10:5:49:243811,-12.19,4.55,-161.29,-0.26,-0.23,0.82,0.890449325,0.909719634
4:10:5:49:243841,-18.54,8.08,-166.15,-0.26,-0.25,0.87,0.941806774,0.915182284
4:10:5:49:243841,-19.5,7.95,-160.57,-0.26,-0.25,0.89,0.960312449,0.930856183
4:10:5:49:243841,-15.64,8.36,-144.73,-0.28,-0.21,0.91,0.974987179,0.959035468
4:10:5:50:244301,-9.47,-3.55,-128.04,-0.25,-0.19,0.95,1.000549849,0.978616492
4:10:5:50:244445,-10.62,-7.28,-132.99,-0.26,-0.22,0.94,0.99979998,0.991779003
4:10:5:50:244493,-10.8,-11.44,-130.29,-0.28,-0.21,0.98,1.040624812,1.013658214
4:10:5:50:244620,-9.66,-16.11,-123.78,-0.3,-0.19,1,1.06117859,1.033867794
4:10:5:50:244749,-9.28,-19.81,-118.39,-0.31,-0.15,1,1.05763888,1.053147427
4:10:5:51:244925,-9.98,-22.89,-118.82,-0.31,-0.15,1,1.05763888,1.058818783
4:10:5:51:245389,-12.49,-21.98,-122.29,-0.31,-0.2,0.91,0.981936862,1.032404874
4:10:5:51:245422,-13.18,-21.34,-111.39,-0.3,-0.16,0.89,0.952732911,0.997436217
4:10:5:51:245637,-12.12,-22.14,-107.42,-0.31,-0.13,0.88,0.942019108,0.958896294
4:10:5:51:245638,-11.9,-20.58,-110.89,-0.3,-0.16,0.86,0.924770242,0.939840754
4:10:5:51:245718,-11.9,-19.66,-118.86,-0.31,-0.19,0.84,0.915314154,0.927367835
4:10:5:51:245798,-13.25,-18.49,-126.33,-0.32,-0.23,0.89,0.973344749,0.937809715
4:10:5:52:246319,-7.7,-12.91,-98.44,-0.22,-0.13,0.8,0.83982141,0.909493437
4:10:5:52:246616,-6.08,-17.89,-91,-0.29,-0.13,0.82,0.879431635,0.897532598
4:10:5:52:246639,-6.55,-22.5,-87.7,-0.36,-0.16,0.88,0.964157663,0.894470236
4:10:5:52:246639,-6.98,-23.16,-90.76,-0.37,-0.19,0.98,1.064612606,0.969400635
4:10:5:52:246735,-7.92,-23.93,-97.94,-0.39,-0.22,1.06,1.150695442,1.059821904
4:10:5:52:246799,-10.42,-24.09,-105.29,-0.37,-0.25,1.09,1.177921899,1.131076649
4:10:5:53:247435,-19.74,-24.89,-90.21,-0.32,-0.17,0.96,1.026109156,1.118242166
4:10:5:53:247547,-21.07,-23.76,-83.46,-0.34,-0.19,1.01,1.082497113,1.095509389
4:10:5:53:247547,-24.09,-23.91,-79.97,-0.35,-0.18,0.98,1.056077649,1.054894639
4:10:5:53:247611,-26.93,-24.38,-81.45,-0.33,-0.22,1,1.075778788,1.071451183
4:10:5:54:248011,-25.87,-26.34,-87.85,-0.3,-0.2,0.93,0.99744674,1.043101059
4:10:5:54:248091,-22.78,-25.52,-94.78,-0.25,-0.22,0.91,0.969020124,1.014081884
4:10:5:54:248303,-14.55,-32.28,-72.97,-0.35,-0.19,1.01,1.085679511,1.017382125
4:10:5:54:248464,-12.45,-37.4,-78.43,-0.36,-0.18,1.03,1.105848091,1.053515908
4:10:5:54:248511,-5.95,-41.66,-91.92,-0.36,-0.23,1.01,1.096631205,1.096052936
4:10:5:54:248687,0.02,-41.8,-104.75,-0.35,-0.24,0.98,1.067941946,1.090140414
4:10:5:54:248704,2.09,-39.87,-110.97,-0.33,-0.26,0.96,1.047902667,1.070825273
4:10:5:54:248815,-1.89,-37.45,-108.71,-0.34,-0.25,0.97,1.057827963,1.057890859
4:10:5:55:249570,-23.2,-24.6,-75.58,-0.24,-0.17,0.81,0.861742421,0.989157684
4:10:5:55:249611,-24.63,-21.48,-69.98,-0.24,-0.16,0.78,0.831624915,0.9170651
4:10:5:55:249612,-24.52,-18.68,-64.83,-0.24,-0.16,0.78,0.831624915,0.841664084
4:10:5:55:249612,-24.38,-16.67,-59.22,-0.25,-0.17,0.82,0.873956521,0.845735451
4:10:5:55:249723,-23.74,-16.5,-53.54,-0.28,-0.16,0.85,0.909120454,0.871567297
4:10:5:55:249819,-23.39,-17.56,-49.66,-0.28,-0.17,0.88,0.938988818,0.907355264
4:10:5:56:250358,-21.16,-37.83,-69.98,-0.31,-0.24,1.06,1.130176977,0.992762083
4:10:5:56:250406,-21.84,-40.49,-68.27,-0.29,-0.23,1.04,1.10390217,1.057689322
4:10:5:56:250502,-23.18,-43.27,-63.02,-0.31,-0.21,1.01,1.077172224,1.103750457
4:10:5:56:250598,-26.61,-41.48,-56.22,-0.32,-0.2,0.97,1.040816987,1.073963793
4:10:5:57:250870,-27.17,-38.12,-53.7,-0.32,-0.18,0.93,0.999849989,1.039279733
4:10:5:57:250998,-26.06,-36.86,-55.62,-0.35,-0.19,0.96,1.039326705,1.02666456
4:10:5:57:251347,-32.07,-23.47,-56.22,-0.26,-0.21,0.88,0.941328848,0.993501847
4:10:5:57:251427,-32.04,-20.07,-50.01,-0.21,-0.19,0.8,0.84864598,0.943100511
4:10:5:57:251554,-32.2,-16.35,-40.8,-0.25,-0.19,0.88,0.93434469,0.908106506
4:10:5:57:251602,-29.02,-15.33,-31.11,-0.26,-0.17,0.93,0.980510071,0.921166914
4:10:5:57:251699,-24.06,-20.83,-24.95,-0.32,-0.17,1.01,1.073033084,0.995962615
4:10:5:57:251827,-22.25,-28.5,-23.91,-0.34,-0.18,1,1.071447619,1.041663592
4:10:5:58:252416,-26.91,-46.56,-46.36,-0.32,-0.25,0.97,1.051570254,1.065350319
4:10:5:58:252431,-33.94,-43.23,-42.77,-0.33,-0.26,0.98,1.066255129,1.063091001
4:10:5:58:252496,-41.83,-36.57,-34.27,-0.3,-0.26,0.99,1.066630208,1.061485197
4:10:5:58:252752,-46.12,-28.9,-23.54,-0.33,-0.25,0.96,1.045466403,1.05945058
4:10:5:59:252847,-45.21,-18.96,-13.06,-0.3,-0.18,0.88,0.946995248,1.019697286
4:10:5:59:252847,-47.15,-6.95,-1.74,-0.27,-0.17,0.85,0.907909687,0.966790446
4:10:5:59:253317,-47.75,5.94,36.68,-0.24,-0.14,0.9,0.941912947,0.932272627
4:10:5:59:253413,-44.58,0.09,41.85,-0.23,-0.15,0.99,1.027375297,0.959065977
4:10:5:59:253509,-41.66,-4.26,49.1,-0.25,-0.15,1.01,1.051237366,1.00684187
4:10:5:59:253637,-46.61,-5.87,59.89,-0.27,-0.14,1.08,1.12200713,1.066873264
4:10:5:59:253733,-53.16,-9.26,68.51,-0.32,-0.13,1.14,1.19117589,1.121473462
4:10:6:0:253893,-60.06,-16.78,71.83,-0.34,-0.18,1.18,1.241128519,1.184770513
4:10:6:0:254689,-83.23,-42.53,86.91,-0.28,-0.22,1,1.061508361,1.164604256
4:10:6:0:254816,-83.25,-38.31,93.03,-0.31,-0.21,0.98,1.049094848,1.117243909
4:10:6:0:254832,-71.83,-33.56,93.41,-0.32,-0.21,0.93,1.005683847,1.038762352
4:10:6:1:254849,-63.01,-29.85,96.97,-0.37,-0.23,0.94,1.036050192,1.030276296
4:10:6:1:255024,-55.61,-30.41,100.65,-0.37,-0.2,0.9,0.993428407,1.011720815
4:10:6:1:255057,-49.19,-32.57,99.56,-0.35,-0.21,0.84,0.933916484,0.987798361
4:10:6:1:255756,-38.27,-33.61,81.29,-0.31,-0.25,0.87,0.956817642,0.961387511
4:10:6:2:255845,-40.58,-31.1,86.15,-0.22,-0.18,0.8,0.848999411,0.913244513
4:10:6:2:255845,-45.9,-25.56,97.36,-0.25,-0.15,0.81,0.860871651,0.888896235
4:10:6:2:255846,-49.15,-18.55,107.04,-0.22,-0.14,0.77,0.812957563,0.840942875
4:10:6:2:255846,-50.28,-12.15,115.73,-0.21,-0.12,0.74,0.778524245,0.817451153
4:10:6:2:255846,-51.31,-5.41,123.59,-0.19,-0.11,0.73,0.762299154,0.784593654
4:10:6:2:256304,-60.83,-19.39,137.32,-0.32,-0.24,1.04,1.114271062,0.885031487
4:10:6:2:256580,-65.72,-22.55,141.32,-0.34,-0.23,1.13,1.202247895,1.026272704
4:10:6:2:256581,-69.79,-23.79,147.13,-0.31,-0.21,1.1,1.161981067,1.159500008
4:10:6:2:256788,-72.68,-21.54,151.57,-0.3,-0.21,1.12,1.178346299,1.18085842
4:10:6:3:257027,-74.39,-17.16,156.77,-0.29,-0.19,1.1,1.153342967,1.164556778
4:10:6:3:257044,-74.71,-14.26,161.64,-0.29,-0.19,1.03,1.086784247,1.139491171
4:10:6:3:257644,-61.58,-7.18,170.9,-0.28,-0.19,0.84,0.905593728,1.048573647
4:10:6:3:257660,-64.35,-7.28,172.16,-0.25,-0.16,0.84,0.890898423,0.961092133
4:10:6:3:257788,-63.45,-8.31,171.98,-0.22,-0.18,0.8,0.848999411,0.881830521
4:10:6:4:257916,-62.12,-4.42,174.3,-0.26,-0.19,0.86,0.918313672,0.886070502
4:10:6:4:257917,-58.21,-0.13,179.31,-0.25,-0.21,0.82,0.882609767,0.883307617
4:10:6:4:257933,-52.81,3.74,-174.58,-0.29,-0.17,0.88,0.942019108,0.914314182
4:10:6:4:258599,-43.66,-6.46,-172.21,-0.31,-0.23,0.99,1.062591173,0.962406682
4:10:6:4:258599,-41.58,-10.09,-175.79,-0.31,-0.21,0.96,1.030436801,1.01168236
4:10:6:4:258646,-40.42,-9.98,-174.6,-0.3,-0.14,0.99,1.043886967,1.045638313
4:10:6:4:258678,-40.93,-7.89,-169.41,-0.33,-0.21,1.06,1.129867249,1.068063672
4:10:6:5:259031,-37.3,-3.89,-164.04,-0.27,-0.09,0.91,0.953467357,1.042407191
4:10:6:5:259046,-33.3,-3.58,-154.1,-0.32,-0.16,0.98,1.043264108,1.042199571
4:10:6:6:259876,-26.16,-15.14,-149.06,-0.34,-0.18,0.91,0.987977733,0.994903066
4:10:6:6:260169,-27.81,-15.96,-149.62,-0.31,-0.29,0.88,0.977036335,1.002759392
4:10:6:6:260169,-27.82,-15.75,-148.57,-0.26,-0.25,0.87,0.941806774,0.968940281
4:10:6:6:260568,-24.84,-17.6,-145.85,-0.34,-0.24,0.9,0.99156442,0.970135843
4:10:6:6:260601,-22.59,-17.76,-140.14,-0.32,-0.28,0.89,0.986356933,0.973242709
4:10:6:6:260633,-21.65,-18.22,-133.83,-0.37,-0.25,0.88,0.986813052,0.988244802
4:10:6:6:260767,-20.15,-14.04,-130.19,-0.28,-0.26,0.79,0.877553417,0.950241134
4:10:6:6:260767,-20.37,-11.44,-129.42,-0.29,-0.17,0.83,0.895488693,0.919951721
4:10:6:6:260768,-22.3,-6.42,-123.54,-0.31,-0.18,0.83,0.904101764,0.892381292
4:10:6:6:260768,-21.45,-3.56,-116.62,-0.3,-0.18,0.84,0.909945053,0.903178504
4:10:6:6:260768,-18.01,-3.43,-109.5,-0.31,-0.23,0.89,0.970103087,0.928049968
4:10:6:6:260797,-13.9,-3.96,-102.79,-0.33,-0.23,0.95,1.031649165,0.970565769
4:10:6:7:261314,-7.79,-12.92,-84.48,-0.27,-0.18,0.86,0.919184421,0.973645558
4:10:6:7:261393,-8.18,-16.18,-75.51,-0.33,-0.19,0.94,1.014199191,0.988344259
4:10:6:7:261521,-10.92,-19.16,-67.63,-0.37,-0.16,0.96,1.041201229,0.991528281
4:10:6:7:261618,-15.41,-18.06,-65.3,-0.35,-0.18,0.98,1.056077649,1.037159356
4:10:6:7:261698,-21.26,-18.27,-65.84,-0.37,-0.18,1.07,1.146385624,1.081221501
4:10:6:7:261809,-24.93,-22.23,-71.77,-0.35,-0.22,1.07,1.147083258,1.11651551
4:10:6:8:262333,-28.84,-9.18,-32.83,-0.28,-0.14,0.89,0.943451112,1.078973331
4:10:6:8:262413,-28.78,-7.17,-17.25,-0.3,-0.1,0.89,0.944510455,1.011681608
4:10:6:8:262493,-26.92,-10.58,-12.1,-0.35,-0.13,0.95,1.020735029,0.969565532
4:10:6:8:262622,-27.8,-15.69,-16.58,-0.34,-0.16,0.97,1.040240357,1.001828614
4:10:6:8:262701,-32.41,-23.37,-23.88,-0.38,-0.21,1.05,1.136221809,1.065732398
4:10:6:9:262909,-33.02,-31.77,-35.03,-0.36,-0.23,1.04,1.124322018,1.100261395
4:10:6:9:263391,-27.45,-49.35,-34.09,-0.35,-0.2,0.99,1.068924693,1.10982284
4:10:6:9:263423,-29.09,-51.43,-31.25,-0.37,-0.19,0.98,1.064612606,1.085953106
4:10:6:9:263535,-26.69,-49.77,-36.5,-0.35,-0.23,0.96,1.047377678,1.060304992
4:10:6:9:263631,-22.86,-44.24,-44.99,-0.33,-0.23,0.94,1.022448043,1.044812775
4:10:6:9:263711,-21.95,-40.19,-49.96,-0.33,-0.24,0.95,1.033924562,1.034583428
4:10:6:9:263807,-24.63,-32.85,-49.29,-0.27,-0.24,0.9,0.969793793,1.008722132
4:10:6:10:264316,-30.3,-11.97,-3.93,-0.26,-0.14,0.87,0.91874915,0.974155835
4:10:6:10:264397,-31.1,-12.09,-0.38,-0.28,-0.16,0.89,0.946625586,0.945056176
4:10:6:10:264493,-33.22,-13.72,1.2,-0.29,-0.17,0.9,0.96072889,0.942034542
4:10:6:10:264605,-33.08,-16.01,-0.16,-0.28,-0.19,0.92,0.980255069,0.962536515
4:10:6:10:264717,-33.37,-17.51,0.56,-0.28,-0.2,0.96,1.019803903,0.986929287
4:10:6:10:264812,-34.45,-17.2,5.06,-0.28,-0.2,0.99,1.048093507,1.016050826
4:10:6:11:265308,-42.19,-16.73,40.37,-0.28,-0.17,1,1.052283232,1.040060214
