sysTime,roll,pitch,yaw,ax,ay,az,sqrt,average
6:9:32:46:15419,69.02,-20.48,142.75,-0.34,0.87,0.34,0.99,0.33
6:9:32:46:15428,67.26,-18.66,144.18,-0.31,0.89,0.37,1.02,1.0
6:9:32:46:15494,66.74,-18.42,145.25,-0.3,0.85,0.38,0.98,1.0
6:9:32:47:15591,68.26,-22.11,144.75,-0.27,0.8,0.43,0.95,0.97
6:9:32:47:15701,74.25,-32.9,138.96,-0.67,0.89,0.22,1.13,1.01
6:9:32:47:15797,79.53,-40.3,133.91,-0.68,0.76,0.0,1.03,1.1
6:9:32:47:16005,78.09,-48.98,136.35,-0.76,0.59,0.16,0.97,1.01
6:9:32:47:16100,77.78,-48.42,138.32,-0.84,0.61,0.21,1.06,1.0
6:9:32:47:16212,78.58,-45.53,139.92,-0.72,0.72,0.15,1.02,1.05
6:9:32:47:16325,79.6,-43.65,140.94,-0.64,0.74,0.09,0.98,1.01
6:9:32:47:16404,82.88,-43.47,139.61,-0.76,0.71,0.06,1.04,1.0
6:9:32:48:16515,84.17,-42.76,139.59,-0.67,0.77,0.08,1.02,1.03
6:9:32:48:16612,86.53,-42.44,138.14,-0.68,0.79,0.01,1.04,1.03
6:9:32:48:16905,89.42,-47.69,135.01,-0.74,0.66,-0.04,1.0,1.03
6:9:32:48:17016,92.02,-47.83,133.01,-0.78,0.68,-0.01,1.04,1.01
6:9:32:48:17115,91.06,-47.33,135.1,-0.73,0.72,-0.01,1.03,1.03
6:9:32:48:17209,89.53,-47.23,137.98,-0.71,0.66,-0.03,0.97,1.01
6:9:32:48:17306,90.55,-45.69,138.85,-0.7,0.71,0.01,1.0,0.98
6:9:32:48:17403,92.31,-45.12,138.83,-0.74,0.74,-0.04,1.04,1.01
6:9:32:48:17499,92.63,-44.38,139.52,-0.68,0.7,-0.02,0.98,1.02
6:9:32:49:17919,93.76,-30.9,141.87,-0.59,0.81,-0.09,1.0,0.99
6:9:32:49:18065,93.07,-22.4,143.08,-0.35,0.96,-0.1,1.03,1.01
6:9:32:49:18114,91.0,-19.03,143.44,-0.29,0.91,-0.12,0.96,1.01
6:9:32:49:18208,88.12,-20.94,143.82,-0.37,0.81,0.13,0.9,0.94
6:9:32:49:18318,87.71,-22.58,142.87,-0.41,0.94,0.11,1.03,0.94
6:9:32:49:18399,87.01,-21.82,142.96,-0.36,0.99,0.14,1.06,1.04
6:9:32:49:18511,85.35,-21.92,145.93,-0.22,0.89,0.15,0.93,1.01
6:9:32:50:19008,87.88,-23.03,137.36,-0.42,0.82,0.08,0.92,0.93
6:9:32:50:19105,89.55,-24.74,137.45,-0.46,0.86,-0.01,0.98,0.94
6:9:32:50:19200,89.2,-26.76,138.47,-0.48,0.89,0.02,1.01,0.99
6:9:32:50:19296,88.27,-27.39,139.13,-0.42,0.9,0.05,1.0,1.01
6:9:32:50:19393,87.71,-27.49,139.53,-0.46,0.91,0.06,1.02,1.0
6:9:32:50:19503,86.17,-27.75,139.78,-0.44,0.91,0.07,1.02,1.02
6:9:32:51:19924,81.22,-33.2,143.65,-0.55,0.84,0.14,1.01,1.02
6:9:32:51:20015,78.31,-34.78,147.31,-0.54,0.8,0.17,0.98,1.0
6:9:32:51:20112,76.62,-36.18,150.34,-0.45,0.73,0.23,0.88,0.94
6:9:32:51:20210,78.49,-36.11,147.25,-0.72,0.83,0.24,1.12,0.96
6:9:32:51:20311,79.26,-35.52,146.37,-0.61,0.79,0.14,1.01,1.08
6:9:32:51:20416,80.42,-34.72,146.02,-0.59,0.8,0.07,1.0,1.0
6:9:32:51:20511,79.99,-33.38,146.64,-0.54,0.82,0.18,1.0,1.0
6:9:32:52:21009,81.09,-31.72,146.81,-0.51,0.88,0.14,1.03,1.01
6:9:32:52:21105,79.66,-32.0,147.29,-0.5,0.82,0.1,0.96,1.01
6:9:32:52:21216,78.81,-31.97,148.09,-0.49,0.86,0.23,1.02,0.98
6:9:32:52:21313,77.88,-31.41,148.68,-0.53,0.84,0.18,1.01,1.02
6:9:32:52:21409,77.59,-30.02,148.57,-0.53,0.85,0.18,1.01,1.01
6:9:32:52:21504,77.29,-28.39,148.4,-0.49,0.87,0.21,1.02,1.01
6:9:32:53:22011,78.67,-25.01,147.28,-0.42,0.9,0.17,1.01,1.01
6:9:32:53:22107,78.73,-24.72,146.85,-0.43,0.91,0.19,1.02,1.01
6:9:32:53:22204,79.01,-24.59,146.25,-0.44,0.9,0.18,1.02,1.02
6:9:32:53:22299,79.32,-24.7,145.94,-0.42,0.9,0.17,1.01,1.01
6:9:32:53:22412,79.32,-24.57,145.58,-0.43,0.88,0.16,1.0,1.01
6:9:32:54:22523,79.26,-24.16,145.65,-0.41,0.92,0.18,1.02,1.01
6:9:32:54:23013,80.3,-22.63,146.28,-0.4,0.88,0.16,0.98,1.01
6:9:32:54:23094,80.53,-22.3,146.57,-0.35,0.95,0.16,1.02,1.0
6:9:32:54:23191,80.65,-23.01,145.56,-0.4,0.91,0.15,1.01,1.02
6:9:32:54:23301,81.26,-23.48,144.1,-0.42,0.92,0.14,1.02,1.01
6:9:32:54:23414,81.3,-23.8,143.52,-0.41,0.91,0.13,1.01,1.02
6:9:32:54:23511,81.48,-23.93,143.32,-0.41,0.92,0.14,1.01,1.01
6:9:32:55:24012,82.64,-24.9,143.5,-0.42,0.91,0.11,1.01,1.01
6:9:32:55:24106,83.01,-24.98,143.1,-0.43,0.92,0.11,1.02,1.01
6:9:32:55:24217,83.38,-24.8,142.76,-0.43,0.93,0.11,1.03,1.02
6:9:32:55:24314,83.34,-24.67,142.63,-0.45,0.91,0.1,1.02,1.03
6:9:32:55:24411,83.23,-24.68,142.69,-0.44,0.91,0.11,1.02,1.02
6:9:32:55:24491,82.61,-24.43,143.41,-0.41,0.92,0.13,1.01,1.02
6:9:32:56:24997,81.23,-24.47,144.12,-0.43,0.91,0.14,1.02,1.01
6:9:32:56:25109,81.28,-24.28,144.68,-0.4,0.9,0.15,1.0,1.01
6:9:32:56:25203,82.02,-24.36,145.0,-0.42,0.93,0.14,1.03,1.01
6:9:32:56:25299,82.31,-24.26,145.16,-0.41,0.91,0.11,1.01,1.02
6:9:32:56:25396,82.49,-24.31,145.09,-0.43,0.91,0.11,1.02,1.01
6:9:32:56:25492,82.46,-24.22,145.26,-0.41,0.92,0.13,1.01,1.02
6:9:32:57:25928,82.22,-23.71,145.04,-0.41,0.91,0.12,1.0,1.01
6:9:32:57:26039,82.33,-23.85,144.9,-0.41,0.91,0.14,1.01,1.0
6:9:32:57:26085,83.05,-24.03,144.69,-0.42,0.93,0.1,1.02,1.01
6:9:32:57:26197,83.51,-24.2,144.45,-0.41,0.91,0.11,1.0,1.02
6:9:32:57:26309,84.36,-23.9,143.92,-0.42,0.93,0.1,1.03,1.01
6:9:32:57:26407,84.65,-23.72,143.55,-0.42,0.92,0.1,1.02,1.02
6:9:32:58:26533,84.57,-23.63,143.41,-0.4,0.92,0.1,1.01,1.02
6:9:32:58:27008,83.84,-23.64,142.93,-0.39,0.91,0.1,0.99,1.01
6:9:32:58:27105,84.04,-23.55,142.82,-0.39,0.91,0.1,0.99,0.99
6:9:32:58:27215,84.05,-23.31,142.8,-0.4,0.93,0.09,1.02,1.0
6:9:32:58:27311,83.55,-23.42,143.34,-0.38,0.92,0.11,1.0,1.01
6:9:32:58:27407,83.52,-23.28,143.35,-0.4,0.94,0.11,1.02,1.01
6:9:32:58:27503,83.18,-23.18,143.62,-0.39,0.94,0.12,1.02,1.02
6:9:32:59:27929,82.19,-23.62,144.4,-0.4,0.92,0.12,1.01,1.02
6:9:32:59:28016,82.12,-23.51,144.31,-0.4,0.94,0.14,1.03,1.02
6:9:32:59:28113,81.7,-23.5,144.39,-0.4,0.91,0.15,1.01,1.02
6:9:32:59:28208,81.56,-23.98,144.43,-0.4,0.9,0.15,1.0,1.0
6:9:32:59:28305,82.56,-24.7,144.24,-0.43,0.92,0.11,1.02,1.0
6:9:32:59:28416,83.72,-24.96,143.92,-0.43,0.93,0.1,1.02,1.02
6:9:32:59:28496,84.53,-25.32,143.58,-0.43,0.92,0.09,1.02,1.02
6:9:33:0:29004,87.55,-27.09,142.53,-0.46,0.91,0.02,1.02,1.02
6:9:33:0:29114,88.29,-27.15,141.8,-0.45,0.89,0.02,1.0,1.02
6:9:33:0:29226,89.44,-27.19,140.37,-0.46,0.9,-0.0,1.01,1.01
6:9:33:0:29291,91.18,-26.85,137.85,-0.43,0.91,-0.06,1.01,1.01
6:9:33:0:29419,94.72,-25.49,133.17,-0.37,0.88,-0.13,0.97,1.0
6:9:33:1:29514,98.79,-22.89,127.59,-0.38,0.95,-0.11,1.03,0.99
6:9:33:1:29945,106.41,-22.3,115.88,-0.33,1.05,-0.26,1.13,1.06
6:9:33:1:30023,105.83,-21.96,115.79,-0.56,0.81,-0.27,1.02,1.09
6:9:33:1:30103,104.74,-22.68,113.61,-0.57,0.92,-0.31,1.12,1.06
6:9:33:1:30214,105.34,-24.35,112.81,-0.52,0.73,-0.15,0.91,1.05
6:9:33:1:30324,104.18,-27.09,113.12,-0.51,0.8,-0.23,0.98,0.93
6:9:33:1:30405,105.32,-28.29,115.04,-0.47,0.9,-0.18,1.03,1.0
6:9:33:1:30501,105.18,-27.6,118.3,-0.45,0.84,-0.15,0.96,1.01
6:9:33:2:30920,96.5,-23.54,134.71,-0.39,0.86,-0.31,1.0,0.97
6:9:33:2:31000,96.24,-22.12,134.26,-0.34,0.85,-0.21,0.94,0.98
6:9:33:2:31112,96.43,-22.61,132.4,-0.34,0.81,-0.07,0.89,0.92
6:9:33:2:31208,96.16,-22.83,130.19,-0.33,0.89,-0.09,0.96,0.91
6:9:33:2:31304,96.5,-23.45,129.48,-0.39,1.0,0.0,1.07,1.0
6:9:33:2:31400,94.5,-25.5,132.25,-0.52,1.08,-0.18,1.21,1.12
6:9:33:3:31527,93.86,-25.02,131.27,-0.51,0.94,-0.28,1.11,1.18
6:9:33:3:31922,102.98,-35.81,135.65,-0.66,0.8,-0.25,1.07,1.09
6:9:33:3:32004,105.32,-37.29,138.32,-0.66,0.78,-0.25,1.05,1.06
6:9:33:3:32099,105.11,-38.69,143.42,-0.81,0.75,-0.27,1.13,1.08
6:9:33:3:32210,100.53,-38.98,153.77,-0.79,0.8,-0.18,1.14,1.14
6:9:33:4:32632,97.3,-38.35,163.31,-0.64,0.72,-0.12,0.97,1.08
6:9:33:4:32633,93.51,-37.54,172.17,-0.66,0.72,-0.07,0.98,0.97
6:9:33:4:32634,90.72,-35.67,-179.19,-0.62,0.96,-0.07,1.15,1.04
6:9:33:4:33008,93.92,-30.99,-151.78,-0.4,0.91,0.03,1.0,1.1
6:9:33:4:33105,95.47,-32.33,-155.02,-0.5,0.87,0.01,1.0,1.0
6:9:33:4:33215,96.27,-33.72,-158.0,-0.69,0.91,0.02,1.14,1.05
6:9:33:4:33296,98.33,-34.92,-161.76,-0.6,1.06,-0.34,1.26,1.18
6:9:33:4:33407,97.28,-39.14,-162.41,-0.5,0.74,-0.11,0.89,1.14
6:9:33:4:33504,95.84,-40.33,-163.09,-0.65,0.76,-0.13,1.01,0.93
6:9:33:5:33990,101.46,-47.96,166.47,-0.73,0.69,0.02,1.0,1.01
6:9:33:5:34115,95.44,-48.55,160.67,-0.81,0.71,-0.08,1.08,1.03
6:9:33:5:34213,88.48,-49.73,153.3,-0.86,0.65,0.01,1.08,1.08
6:9:33:5:34309,83.6,-49.92,146.42,-0.79,0.77,0.02,1.1,1.09
6:9:33:5:34405,80.53,-46.75,140.04,-0.63,0.73,0.1,0.97,1.06
6:9:33:5:34500,77.65,-40.1,135.85,-0.63,0.77,0.17,1.01,0.99
6:9:33:6:35009,72.05,-37.2,136.65,-0.6,0.7,0.15,0.93,0.99
6:9:33:6:35105,71.52,-38.73,139.04,-0.77,0.82,0.26,1.15,1.01
6:9:33:6:35202,72.2,-38.08,141.7,-0.68,0.72,0.18,1.01,1.1
6:9:33:6:35296,72.91,-38.28,144.56,-0.65,0.72,0.18,0.99,1.0
6:9:33:6:35393,73.44,-38.16,146.3,-0.58,0.72,0.25,0.95,0.98
6:9:33:6:35488,75.32,-38.45,146.73,-0.66,0.81,0.14,1.06,0.99
6:9:33:7:35909,72.04,-46.57,148.07,-0.8,0.71,0.2,1.08,1.07
6:9:33:7:36006,68.38,-46.95,150.56,-0.72,0.58,0.27,0.96,1.04
6:9:33:7:36133,65.84,-45.73,151.5,-0.67,0.52,0.26,0.88,0.94
6:9:33:7:36211,61.65,-47.28,153.77,-0.88,0.79,0.35,1.23,1.0
6:9:33:7:36310,61.58,-45.43,153.41,-0.6,0.61,0.27,0.9,1.12
6:9:33:7:36420,61.96,-44.04,153.79,-0.71,0.69,0.32,1.04,0.95
6:9:33:8:36518,64.56,-40.79,153.58,-0.6,0.7,0.28,0.96,1.02
6:9:33:8:36935,63.73,-36.43,158.95,-0.59,0.75,0.36,1.02,0.98
6:9:33:8:37001,63.7,-35.82,162.5,-0.55,0.7,0.33,0.95,1.0
6:9:33:8:37095,67.28,-34.67,161.2,-0.57,0.73,0.45,1.03,0.98
6:9:33:8:37208,64.32,-36.87,164.59,-0.57,0.71,0.36,0.98,1.01
6:9:33:8:37305,69.81,-39.96,161.02,-0.59,0.84,0.31,1.07,1.01
6:9:33:8:37415,61.01,-47.48,164.5,-0.68,0.44,0.22,0.84,0.99
6:9:33:8:37511,68.73,-53.59,157.66,-0.79,0.58,0.35,1.04,0.9
6:9:33:9:37923,66.56,-60.65,171.28,-0.81,0.35,0.16,0.9,0.99
6:9:33:9:38010,66.09,-58.56,171.92,-0.97,0.52,0.26,1.13,0.97
6:9:33:9:38108,60.55,-64.12,179.41,-0.93,0.43,0.09,1.03,1.1
6:9:33:9:38201,57.48,-66.17,178.6,-0.88,0.27,0.17,0.93,1.0
6:9:33:9:38296,55.36,-67.18,-179.04,-0.88,0.28,0.13,0.93,0.93
6:9:33:9:38409,59.05,-67.07,176.46,-0.95,0.4,0.14,1.04,0.97
6:9:33:9:38505,64.44,-66.31,171.55,-0.91,0.3,0.17,0.97,1.02
6:9:33:10:39000,46.98,-64.13,-166.23,-1.02,0.34,0.34,1.13,1.02
6:9:33:10:39096,40.99,-60.58,-159.82,-0.91,0.32,0.32,1.01,1.09
6:9:33:10:39206,37.5,-57.91,-156.04,-0.87,0.34,0.47,1.04,1.02
6:9:33:10:39317,35.34,-57.11,-153.19,-0.76,0.33,0.53,0.98,1.02
6:9:33:10:39414,35.63,-57.63,-154.94,-0.7,0.25,0.6,0.95,0.97
6:9:33:10:39511,44.35,-60.59,-164.99,-0.92,0.32,0.4,1.05,0.99
6:9:33:11:39914,61.36,-64.28,173.36,-0.84,0.33,0.22,0.93,1.01
6:9:33:11:40009,60.5,-64.72,174.33,-0.86,0.35,0.25,0.97,0.94
6:9:33:11:40119,59.68,-65.05,175.42,-0.91,0.36,0.22,1.0,0.98
6:9:33:11:40216,60.58,-65.91,175.11,-0.96,0.37,0.21,1.05,1.02
6:9:33:11:40312,64.58,-65.03,171.55,-1.06,0.46,0.21,1.18,1.09
6:9:33:11:40408,68.16,-60.48,168.1,-0.98,0.47,0.22,1.11,1.15
6:9:33:11:40505,64.33,-60.82,172.12,-0.69,0.37,0.27,0.83,1.01
6:9:33:12:41005,95.18,-58.34,143.14,-1.02,0.55,-0.12,1.16,0.94
6:9:33:12:41103,94.77,-51.52,143.12,-0.76,0.64,-0.0,0.99,1.11
6:9:33:12:41199,96.76,-49.52,141.0,-0.65,0.75,-0.01,0.99,0.99
6:9:33:12:41327,99.44,-50.42,138.92,-0.82,0.64,-0.08,1.05,1.01
6:9:33:12:41407,108.61,-57.99,134.23,-0.89,0.53,-0.15,1.05,1.05
6:9:33:13:41517,127.17,-64.88,120.78,-0.98,0.36,-0.21,1.07,1.05
6:9:33:13:41928,135.33,-67.65,112.77,-0.86,0.24,-0.35,0.95,1.03
6:9:33:13:42005,116.82,-64.47,127.73,-0.94,0.44,-0.32,1.09,1.0
6:9:33:13:42104,109.93,-62.69,133.1,-0.65,0.38,-0.07,0.76,0.98
6:9:33:13:42214,107.99,-58.14,138.3,-1.0,0.7,-0.18,1.23,0.92
6:9:33:13:42295,110.9,-64.67,138.46,-1.02,0.33,-0.24,1.1,1.19
6:9:33:13:42391,105.46,-65.56,139.92,-0.96,0.48,-0.05,1.08,1.09
6:9:33:14:42518,99.22,-61.46,142.92,-0.84,0.54,0.03,1.0,1.05
6:9:33:14:43002,130.27,-60.05,117.42,-0.9,0.3,-0.31,1.0,1.0
6:9:33:14:43112,132.08,-59.19,114.91,-0.88,0.42,-0.36,1.04,1.01
6:9:33:14:43209,135.84,-58.66,112.91,-0.93,0.4,-0.33,1.07,1.05
6:9:33:14:43305,137.7,-59.43,112.0,-0.85,0.34,-0.38,0.99,1.04
6:9:33:14:43402,134.01,-59.71,114.65,-0.96,0.35,-0.34,1.07,1.02
6:9:33:14:43497,122.58,-59.44,123.03,-0.98,0.56,-0.34,1.18,1.11
6:9:33:15:43920,127.31,-58.44,120.53,-0.92,0.43,-0.31,1.06,1.14
6:9:33:15:44001,125.88,-58.38,121.03,-0.91,0.46,-0.21,1.04,1.06
6:9:33:15:44112,125.18,-58.35,120.97,-0.91,0.41,-0.34,1.06,1.05
6:9:33:15:44208,122.56,-58.64,121.88,-0.9,0.49,-0.26,1.06,1.06
6:9:33:15:44304,122.81,-58.48,121.57,-0.86,0.43,-0.28,1.0,1.04
6:9:33:15:44414,122.74,-58.57,121.57,-0.87,0.45,-0.27,1.02,1.01
6:9:33:15:44511,122.78,-58.7,121.64,-0.88,0.44,-0.27,1.02,1.02
6:9:33:16:45003,122.46,-59.0,121.76,-0.89,0.44,-0.3,1.04,1.03
6:9:33:16:45116,122.38,-58.94,121.69,-0.88,0.44,-0.27,1.02,1.03
6:9:33:16:45195,122.5,-58.93,121.46,-0.87,0.44,-0.26,1.01,1.01
6:9:33:16:45322,122.44,-58.88,121.37,-0.88,0.44,-0.28,1.02,1.01
6:9:33:16:45418,122.55,-58.93,121.13,-0.89,0.44,-0.29,1.03,1.02
6:9:33:17:45516,122.41,-58.9,121.05,-0.88,0.45,-0.27,1.02,1.03
6:9:33:17:45931,121.8,-58.82,120.88,-0.89,0.45,-0.28,1.04,1.03
6:9:33:17:45996,121.82,-58.81,120.87,-0.87,0.43,-0.28,1.01,1.03
6:9:33:17:46106,121.86,-58.74,120.74,-0.89,0.45,-0.29,1.04,1.02
6:9:33:17:46220,121.85,-58.64,120.63,-0.89,0.47,-0.27,1.04,1.04
6:9:33:17:46300,121.84,-58.48,120.68,-0.87,0.46,-0.28,1.03,1.04
6:9:33:17:46413,121.97,-58.4,120.76,-0.87,0.45,-0.28,1.02,1.02
6:9:33:17:46508,122.53,-58.43,120.66,-0.87,0.46,-0.29,1.03,1.02
6:9:33:18:47028,122.3,-58.7,120.97,-0.85,0.44,-0.27,1.0,1.02
6:9:33:18:47107,121.68,-58.84,121.24,-0.89,0.47,-0.27,1.04,1.01
6:9:33:18:47203,121.35,-58.57,121.53,-0.96,0.47,-0.31,1.11,1.07
6:9:33:18:47300,123.5,-58.09,119.73,-0.84,0.44,-0.26,0.98,1.07
6:9:33:18:47397,124.19,-57.57,119.82,-0.86,0.48,-0.28,1.03,1.0
6:9:33:18:47491,125.43,-57.41,119.57,-0.86,0.42,-0.36,1.03,1.03
6:9:33:19:47914,129.93,-57.94,116.67,-0.85,0.39,-0.4,1.02,1.03
6:9:33:19:47993,129.88,-57.83,116.45,-0.88,0.41,-0.34,1.02,1.02
6:9:33:19:48092,130.01,-57.84,115.75,-0.88,0.43,-0.33,1.03,1.03
6:9:33:19:48201,130.33,-58.06,114.82,-0.86,0.4,-0.39,1.03,1.03
6:9:33:19:48315,130.94,-58.34,113.98,-0.86,0.4,-0.34,1.0,1.02
6:9:33:19:48410,131.26,-58.4,113.58,-0.88,0.41,-0.38,1.04,1.02
6:9:33:19:48490,131.57,-58.56,113.35,-0.88,0.37,-0.34,1.02,1.03
6:9:33:20:49002,129.17,-57.62,116.81,-0.83,0.43,-0.31,0.98,1.01
6:9:33:20:49099,128.2,-57.58,118.1,-0.91,0.45,-0.44,1.11,1.02
6:9:33:20:49195,128.7,-57.73,118.76,-0.81,0.42,-0.24,0.95,1.05
6:9:33:20:49291,126.88,-57.86,120.69,-0.91,0.46,-0.4,1.1,1.0
6:9:33:20:49418,125.05,-58.14,123.22,-0.86,0.44,-0.4,1.05,1.08
6:9:33:21:49514,123.62,-58.67,125.8,-0.86,0.39,-0.24,0.98,1.02
6:9:33:21:49909,122.73,-59.1,127.49,-0.9,0.35,-0.29,1.01,0.99
6:9:33:21:49989,123.26,-58.14,126.8,-0.85,0.49,-0.33,1.03,1.02
6:9:33:21:50115,124.56,-58.2,125.91,-0.86,0.43,-0.28,1.0,1.02
6:9:33:21:50212,124.69,-57.69,125.27,-0.88,0.46,-0.35,1.05,1.02
6:9:33:21:50308,124.16,-57.4,125.36,-0.86,0.47,-0.25,1.02,1.04
6:9:33:21:50405,123.96,-57.77,125.89,-0.89,0.47,-0.3,1.05,1.03
6:9:33:21:50500,123.81,-57.46,125.91,-0.85,0.43,-0.25,0.99,1.03
6:9:33:22:50925,115.2,-52.15,128.75,-0.82,0.54,-0.3,1.03,1.0
6:9:33:22:51011,114.96,-51.03,128.27,-0.81,0.54,-0.27,1.01,1.02
6:9:33:22:51107,116.21,-50.34,126.78,-0.78,0.6,-0.3,1.03,1.02
6:9:33:22:51219,117.5,-50.37,126.1,-0.78,0.56,-0.24,0.99,1.02
6:9:33:22:51299,115.64,-50.81,128.34,-0.86,0.66,-0.28,1.12,1.03
6:9:33:22:51409,113.44,-50.51,130.93,-0.83,0.61,-0.29,1.07,1.11
6:9:33:23:51524,113.23,-49.94,130.77,-0.8,0.58,-0.24,1.01,1.05
6:9:33:23:51917,113.71,-47.13,126.98,-0.63,0.5,-0.37,0.88,0.97
6:9:33:23:52013,114.93,-45.93,124.23,-0.76,0.62,-0.36,1.04,0.94
6:9:33:23:52109,116.71,-45.25,122.67,-0.73,0.62,-0.24,0.99,1.02
6:9:33:23:52219,119.66,-44.63,120.8,-0.74,0.68,-0.38,1.07,1.01
6:9:33:23:52317,122.2,-43.48,119.63,-0.72,0.75,-0.32,1.09,1.08
6:9:33:23:52413,122.62,-41.31,120.05,-0.64,0.6,-0.5,1.02,1.06
6:9:33:23:52509,121.15,-41.03,120.7,-0.64,0.64,-0.4,0.99,1.01
6:9:33:24:52908,116.5,-42.36,122.1,-0.69,0.76,-0.34,1.08,1.02
6:9:33:24:53035,114.61,-42.53,122.81,-0.7,0.69,-0.28,1.02,1.06
6:9:33:24:53115,112.54,-42.95,124.06,-0.65,0.64,-0.3,0.96,1.0
6:9:33:24:53210,110.86,-43.65,124.44,-0.69,0.66,-0.29,0.99,0.97
6:9:33:24:53307,108.45,-43.65,124.26,-0.6,0.69,-0.17,0.93,0.97
6:9:33:24:53403,103.64,-45.16,125.0,-0.67,0.54,-0.25,0.9,0.92
6:9:33:24:53501,96.42,-46.79,125.0,-0.67,0.78,-0.09,1.03,0.94
6:9:33:25:53917,80.42,-55.81,115.62,-0.8,0.53,0.05,0.96,1.01
6:9:33:25:53995,77.45,-55.42,114.32,-0.86,0.62,0.14,1.07,1.0
6:9:33:25:54092,73.47,-53.16,114.23,-0.78,0.7,0.18,1.06,1.07
6:9:33:25:54202,69.29,-50.9,115.03,-0.78,0.67,0.25,1.06,1.06
6:9:33:25:54300,67.64,-48.17,114.29,-0.66,0.66,0.25,0.97,1.03
6:9:33:25:54395,66.03,-46.24,114.7,-0.66,0.68,0.27,0.99,0.98
6:9:33:25:54492,64.31,-43.04,115.26,-0.59,0.7,0.35,0.98,0.98
6:9:33:26:54915,57.06,-31.33,120.37,-0.52,0.76,0.45,1.02,0.99
6:9:33:26:55015,57.51,-28.5,119.63,-0.49,0.77,0.47,1.03,1.02
6:9:33:26:55109,58.76,-25.06,118.21,-0.41,0.76,0.49,1.0,1.02
6:9:33:26:55205,59.61,-21.69,117.14,-0.35,0.79,0.48,0.99,0.99
6:9:33:26:55300,59.92,-19.49,116.55,-0.31,0.8,0.47,0.98,0.98
6:9:33:26:55396,59.93,-19.26,117.3,-0.32,0.76,0.5,0.96,0.97
6:9:33:26:55507,59.45,-20.12,118.67,-0.4,0.85,0.47,1.05,0.99
6:9:33:27:55920,59.44,-5.96,118.74,-0.18,0.81,0.52,0.98,1.03
6:9:33:27:56000,57.45,-4.56,118.45,-0.09,0.75,0.55,0.94,0.97
6:9:33:27:56113,55.2,-5.29,121.05,-0.17,0.81,0.59,1.02,0.96
6:9:33:27:56193,54.0,-5.37,122.9,-0.13,0.78,0.62,1.01,1.01
6:9:33:27:56288,53.4,-5.54,123.8,-0.14,0.78,0.61,1.0,1.0
6:9:33:27:56401,52.89,-6.17,124.33,-0.13,0.76,0.6,0.98,0.99
6:9:33:28:56516,52.56,-6.71,124.92,-0.14,0.76,0.62,0.99,0.98
6:9:33:28:56902,51.66,-7.9,126.33,-0.16,0.76,0.64,1.01,1.0
6:9:33:28:56999,51.51,-7.94,126.62,-0.15,0.76,0.63,1.0,1.0
6:9:33:28:57110,51.4,-7.96,126.96,-0.16,0.76,0.64,1.0,1.0
6:9:33:28:57191,51.4,-8.0,127.23,-0.16,0.76,0.62,1.0,1.0
6:9:33:28:57319,51.39,-7.9,127.47,-0.15,0.76,0.64,1.0,1.0
6:9:33:28:57399,50.86,-7.1,127.25,-0.15,0.75,0.62,0.99,1.0
6:9:33:28:57510,49.17,-4.03,125.94,-0.09,0.74,0.66,1.0,0.99
6:9:33:29:57915,42.05,8.92,109.58,0.15,0.61,0.74,0.97,0.99
6:9:33:29:58011,41.87,10.34,106.35,0.24,0.53,0.73,0.94,0.96
6:9:33:29:58107,41.87,10.49,103.79,0.28,0.54,0.74,0.96,0.94
6:9:33:29:58202,41.73,10.81,101.36,0.32,0.5,0.78,0.98,0.97
6:9:33:29:58313,42.63,9.27,99.44,0.29,0.46,0.77,0.95,0.97
6:9:33:29:58410,43.92,7.58,98.32,0.3,0.44,0.8,0.96,0.95
6:9:33:29:58505,43.92,6.61,97.61,0.26,0.46,0.83,0.98,0.97
6:9:33:30:58907,46.4,7.57,94.03,0.29,0.44,0.81,0.97,0.98
6:9:33:30:59002,46.74,7.33,93.47,0.28,0.44,0.82,0.97,0.97
6:9:33:30:59099,47.01,7.1,93.19,0.29,0.46,0.82,0.98,0.98
6:9:33:30:59210,47.38,6.87,92.73,0.3,0.48,0.81,0.99,0.98
6:9:33:30:59321,47.45,6.64,92.15,0.27,0.47,0.82,0.98,0.99
6:9:33:30:59386,47.92,6.74,91.56,0.27,0.48,0.79,0.96,0.98
6:9:33:30:59499,48.17,6.68,90.98,0.28,0.5,0.81,0.99,0.97
6:9:33:31:59924,47.54,6.26,88.81,0.27,0.51,0.79,0.98,0.99
6:9:33:31:60002,47.57,5.99,88.48,0.26,0.52,0.8,0.99,0.98
6:9:33:31:60116,47.68,5.8,87.98,0.24,0.52,0.8,0.98,0.99
6:9:33:31:60212,47.79,5.93,87.46,0.26,0.5,0.79,0.97,0.98
6:9:33:31:60307,47.61,6.16,86.82,0.26,0.5,0.79,0.97,0.97
6:9:33:31:60405,47.43,6.01,86.24,0.26,0.51,0.81,0.99,0.98
6:9:33:32:60516,47.0,5.95,85.95,0.24,0.52,0.81,0.99,0.99
6:9:33:32:60914,46.9,6.55,84.23,0.27,0.52,0.8,0.98,0.99
6:9:33:32:61003,46.57,6.22,83.78,0.25,0.51,0.79,0.97,0.98
6:9:33:32:61099,46.67,6.01,83.3,0.25,0.53,0.79,0.98,0.97
6:9:33:32:61195,46.66,5.82,82.98,0.22,0.53,0.82,1.0,0.99
6:9:33:32:61307,46.13,5.97,82.6,0.25,0.51,0.8,0.97,0.99
6:9:33:32:61403,45.9,6.11,82.41,0.23,0.5,0.81,0.98,0.98
6:9:33:33:61516,45.91,6.25,82.03,0.23,0.51,0.8,0.98,0.98
6:9:33:33:61924,46.58,6.37,80.78,0.26,0.53,0.76,0.96,0.97
6:9:33:33:61989,46.96,6.33,80.51,0.21,0.51,0.82,0.99,0.97
6:9:33:33:62100,46.71,6.62,80.26,0.28,0.55,0.76,0.98,0.99
6:9:33:33:62197,45.72,6.59,80.45,0.23,0.54,0.79,0.98,0.98
6:9:33:33:62296,45.02,6.44,80.24,0.24,0.49,0.81,0.97,0.98
6:9:33:33:62404,45.23,5.93,79.99,0.23,0.53,0.79,0.98,0.98
6:9:33:33:62502,45.9,5.43,79.98,0.19,0.52,0.8,0.98,0.98
6:9:33:34:62923,60.15,-9.38,102.5,-0.01,0.71,0.63,0.95,0.97
6:9:33:34:62992,66.62,-15.05,111.42,-0.15,0.84,0.46,0.96,0.95
6:9:33:34:63119,74.3,-20.46,119.12,-0.29,0.89,0.27,0.98,0.97
6:9:33:34:63215,82.15,-24.25,125.48,-0.42,0.96,0.1,1.05,1.0
6:9:33:34:63312,87.64,-26.67,132.27,-0.51,0.98,-0.02,1.11,1.07
6:9:33:34:63407,90.08,-28.7,139.29,-0.55,1.01,-0.12,1.16,1.12
6:9:33:34:63503,92.18,-27.93,144.67,-0.49,0.92,-0.1,1.05,1.12
6:9:33:35:64013,113.44,-30.06,158.26,-0.34,0.88,-0.47,1.06,1.05
6:9:33:35:64110,116.06,-31.65,159.9,-0.39,0.91,-0.47,1.1,1.07
6:9:33:35:64205,118.47,-31.97,161.73,-0.41,0.83,-0.47,1.04,1.08
6:9:33:35:64318,120.53,-30.69,163.14,-0.42,0.78,-0.47,1.01,1.03
6:9:33:35:64413,120.95,-29.16,165.23,-0.43,0.74,-0.45,0.96,0.99
6:9:33:35:64495,119.46,-28.3,167.33,-0.49,0.75,-0.42,1.0,0.97
6:9:33:36:64902,113.97,-32.03,166.18,-0.66,0.83,-0.36,1.12,1.04
6:9:33:36:65013,115.93,-31.92,162.93,-0.63,0.9,-0.36,1.15,1.13
6:9:33:36:65109,119.41,-32.13,159.14,-0.6,0.8,-0.34,1.06,1.12
6:9:33:36:65221,121.97,-32.48,156.31,-0.61,0.76,-0.35,1.04,1.05
6:9:33:36:65300,122.19,-33.04,154.84,-0.59,0.78,-0.36,1.04,1.04
6:9:33:36:65414,122.04,-33.64,153.57,-0.61,0.75,-0.36,1.03,1.04
6:9:33:36:65510,120.53,-33.93,153.13,-0.58,0.76,-0.34,1.02,1.02
6:9:33:37:65915,117.85,-35.14,150.6,-0.58,0.75,-0.33,1.0,1.01
6:9:33:37:66013,117.61,-35.36,149.85,-0.6,0.74,-0.33,1.01,1.01
6:9:33:37:66109,117.48,-35.89,149.02,-0.63,0.76,-0.33,1.04,1.02
6:9:33:37:66204,117.33,-35.74,148.21,-0.62,0.77,-0.34,1.04,1.04
6:9:33:37:66316,117.17,-35.57,147.67,-0.61,0.74,-0.33,1.01,1.03
6:9:33:37:66413,116.79,-35.49,147.3,-0.61,0.74,-0.34,1.02,1.01
6:9:33:37:66492,116.19,-35.38,146.84,-0.59,0.75,-0.34,1.01,1.01
6:9:33:38:66914,115.12,-35.79,143.63,-0.6,0.74,-0.33,1.01,1.01
6:9:33:38:67012,114.31,-35.75,143.14,-0.62,0.8,-0.34,1.07,1.03
6:9:33:38:67106,113.84,-35.82,142.69,-0.63,0.76,-0.32,1.04,1.06
6:9:33:38:67203,113.43,-36.04,142.07,-0.65,0.78,-0.33,1.06,1.05
6:9:33:38:67314,112.3,-36.34,141.82,-0.64,0.8,-0.32,1.08,1.07
6:9:33:38:67395,110.61,-36.83,141.58,-0.69,0.86,-0.35,1.15,1.1
6:9:33:38:67506,108.59,-37.6,141.26,-0.75,0.82,-0.35,1.16,1.16
6:9:33:39:67920,104.61,-36.11,120.47,-0.59,0.82,-0.29,1.05,1.12
6:9:33:39:68012,106.02,-35.64,111.0,-0.51,0.84,-0.26,1.02,1.04
6:9:33:39:68108,107.94,-34.33,101.68,-0.51,0.76,-0.26,0.95,0.99
6:9:33:39:68203,109.51,-32.83,92.33,-0.52,0.75,-0.28,0.96,0.95
6:9:33:39:68313,110.28,-30.6,83.56,-0.48,0.82,-0.3,1.0,0.97
6:9:33:39:68408,110.83,-28.91,76.4,-0.43,0.79,-0.31,0.95,0.98
6:9:33:39:68505,110.07,-27.31,72.17,-0.43,0.79,-0.28,0.95,0.95
6:9:33:40:69018,107.25,-28.98,61.85,-0.47,0.88,-0.23,1.02,0.97
6:9:33:40:69115,104.19,-27.85,60.77,-0.54,0.94,-0.24,1.11,1.05
6:9:33:40:69211,102.03,-27.2,57.57,-0.48,0.98,-0.26,1.13,1.12
6:9:33:40:69307,101.14,-28.03,55.4,-0.31,1.05,-0.24,1.12,1.12
6:9:33:40:69417,102.13,-30.5,56.74,-0.4,0.71,-0.09,0.82,1.02
6:9:33:41:69514,102.51,-31.3,58.04,-0.37,0.82,-0.12,0.91,0.85
6:9:33:41:69935,97.7,-35.0,76.47,-0.44,0.82,-0.09,0.93,0.92
6:9:33:41:70003,98.2,-36.49,79.5,-0.4,0.78,-0.11,0.88,0.92
6:9:33:41:70114,97.31,-35.33,82.52,-0.39,0.9,-0.12,0.99,0.92
6:9:33:41:70211,95.5,-33.86,85.32,-0.6,1.12,-0.21,1.29,1.09
6:9:33:41:70306,94.61,-35.53,87.33,-0.54,1.06,-0.16,1.2,1.26
6:9:33:41:70402,95.65,-37.61,87.99,-0.42,0.8,-0.09,0.91,1.1
6:9:33:41:70498,96.06,-37.32,88.89,-0.38,0.81,-0.11,0.91,0.91
6:9:33:42:70912,95.99,-34.55,97.56,-0.45,0.9,-0.06,1.0,0.94
6:9:33:42:70991,97.1,-34.53,97.45,-0.44,0.8,-0.03,0.91,0.97
6:9:33:42:71119,96.91,-32.89,97.16,-0.45,0.83,-0.01,0.95,0.92
6:9:33:42:71215,95.66,-31.96,96.81,-0.51,1.02,-0.15,1.16,1.02
6:9:33:42:71327,94.35,-32.82,97.8,-0.65,1.09,-0.16,1.28,1.2
6:9:33:42:71407,94.1,-36.17,96.86,-0.47,0.98,-0.17,1.09,1.22
6:9:33:43:71534,94.86,-35.69,98.34,-0.4,0.8,-0.1,0.9,1.03
6:9:33:43:71920,95.93,-32.04,104.24,-0.51,0.86,-0.05,1.0,0.93
6:9:33:43:72016,97.46,-32.69,103.61,-0.45,0.8,-0.08,0.93,0.98
6:9:33:43:72110,97.85,-31.9,102.91,-0.43,0.86,-0.08,0.96,0.94
6:9:33:43:72206,96.28,-30.31,102.39,-0.44,0.93,-0.03,1.03,0.98
6:9:33:43:72302,93.71,-29.42,102.08,-0.49,1.01,-0.11,1.13,1.06
6:9:33:43:72413,91.76,-29.56,101.79,-0.55,1.06,-0.05,1.2,1.15
6:9:33:44:72526,90.77,-30.81,101.56,-0.46,1.01,-0.08,1.11,1.17
6:9:33:44:72916,89.51,-28.86,107.5,-0.45,1.03,-0.04,1.13,1.12
6:9:33:44:73008,89.08,-29.88,110.93,-0.54,0.92,0.0,1.07,1.11
6:9:33:44:73120,90.55,-30.44,112.29,-0.5,0.92,-0.01,1.05,1.06
6:9:33:44:73202,93.11,-32.1,112.09,-0.4,0.73,0.02,0.84,0.98
6:9:33:44:73315,93.01,-31.11,111.97,-0.43,0.87,-0.01,0.97,0.88
6:9:33:44:73440,91.51,-29.18,111.83,-0.47,0.96,-0.04,1.06,1.0
6:9:33:45:73520,91.32,-29.67,112.14,-0.56,1.01,-0.05,1.16,1.09
6:9:33:45:73999,92.22,-27.8,113.76,-0.6,1.0,-0.06,1.17,1.16
6:9:33:45:74096,91.94,-27.74,114.71,-0.56,0.93,-0.01,1.08,1.14
6:9:33:45:74208,92.9,-28.1,113.75,-0.43,0.76,0.05,0.87,1.01
6:9:33:45:74320,93.6,-27.33,111.33,-0.31,0.8,0.03,0.86,0.87
6:9:33:45:74400,92.75,-25.24,110.45,-0.39,0.88,0.03,0.96,0.89
6:9:33:45:74511,90.94,-24.12,109.27,-0.54,1.08,-0.07,1.21,1.04
6:9:33:46:74944,90.79,-27.26,107.04,-0.4,0.9,-0.02,0.99,1.14
6:9:33:46:75023,90.81,-26.07,109.39,-0.47,0.97,-0.01,1.08,1.02
6:9:33:46:75102,90.88,-24.89,112.55,-0.55,0.98,-0.01,1.12,1.09
6:9:33:46:75216,90.94,-24.08,115.3,-0.52,0.96,-0.05,1.1,1.11
6:9:33:46:75312,91.69,-25.91,116.98,-0.41,0.79,0.01,0.89,1.03
6:9:33:46:75423,91.94,-26.54,117.55,-0.33,0.84,-0.02,0.91,0.9
6:9:33:46:75503,91.65,-25.61,118.3,-0.38,0.88,0.02,0.96,0.92
6:9:33:47:76057,89.85,-23.11,115.24,-0.33,0.85,-0.02,0.91,0.94
6:9:33:47:76105,90.28,-21.19,116.02,-0.32,0.92,-0.0,0.98,0.93
6:9:33:47:76216,90.54,-19.83,117.41,-0.36,0.92,0.03,0.99,0.98
6:9:33:47:76313,90.73,-19.16,120.34,-0.39,0.96,0.01,1.04,1.01
6:9:33:47:76408,92.24,-22.18,122.77,-0.45,0.98,-0.07,1.08,1.05
6:9:33:48:76518,95.47,-23.97,123.11,-0.46,0.84,-0.1,0.96,1.04
6:9:33:48:76928,99.33,-21.56,115.55,-0.4,1.06,-0.2,1.15,1.02
6:9:33:48:77010,102.5,-20.93,113.81,-0.45,0.96,-0.3,1.1,1.13
6:9:33:48:77107,108.65,-18.37,111.64,-0.35,0.79,-0.33,0.93,1.04
6:9:33:48:77218,112.81,-13.48,110.5,-0.25,0.86,-0.39,0.98,0.94
6:9:33:48:77313,115.72,-9.85,110.49,-0.19,0.86,-0.44,0.98,0.98
6:9:33:48:77410,117.11,-7.96,110.85,-0.16,0.86,-0.41,0.97,0.98
6:9:33:49:77521,118.29,-7.62,111.56,-0.24,0.85,-0.46,0.99,0.98
6:9:33:49:78073,125.74,-12.66,105.95,-0.25,0.9,-0.55,1.08,1.02
6:9:33:49:78104,126.16,-13.07,105.09,-0.23,0.88,-0.58,1.08,1.08
6:9:33:49:78199,125.11,-12.98,105.09,-0.19,0.83,-0.57,1.03,1.06
6:9:33:49:78423,121.56,-13.05,106.48,-0.23,0.94,-0.55,1.12,1.06
6:9:33:49:78439,115.98,-15.3,107.93,-0.29,0.86,-0.5,1.04,1.09
6:9:33:49:78487,108.41,-17.04,110.12,-0.27,0.92,-0.32,1.01,1.03
6:9:33:50:78950,95.87,-19.02,116.35,-0.4,1.07,-0.11,1.14,1.06
6:9:33:50:79013,96.36,-17.64,116.53,-0.28,0.92,-0.09,0.97,1.08
6:9:33:50:79127,95.95,-18.98,117.52,-0.25,0.84,-0.06,0.88,0.94
6:9:33:50:79239,93.97,-20.98,119.77,-0.3,0.78,-0.07,0.84,0.87
6:9:33:50:79320,88.69,-20.93,122.56,-0.34,0.91,0.04,0.97,0.89
6:9:33:50:79399,81.16,-19.79,125.44,-0.43,1.06,0.08,1.15,1.03
6:9:33:50:79510,74.55,-19.32,126.42,-0.53,1.04,0.23,1.19,1.16
6:9:33:51:79932,72.06,-21.71,122.4,-0.41,0.86,0.37,1.02,1.13
6:9:33:51:80074,71.92,-23.54,124.13,-0.56,0.87,0.32,1.09,1.04
6:9:33:51:80105,70.88,-26.1,125.89,-0.47,0.84,0.26,1.0,1.06
6:9:33:51:80202,69.44,-27.23,128.19,-0.38,0.77,0.27,0.9,0.97
6:9:33:51:80328,67.43,-27.42,131.16,-0.46,0.77,0.31,0.95,0.92
6:9:33:51:80425,64.62,-25.66,132.96,-0.56,0.88,0.36,1.1,1.0
6:9:33:52:80521,61.42,-24.22,134.43,-0.56,0.83,0.47,1.11,1.11
6:9:33:52:81036,49.82,-21.57,143.79,-0.49,0.77,0.68,1.14,1.12
6:9:33:52:81115,48.11,-23.06,148.36,-0.47,0.65,0.65,1.04,1.11
6:9:33:52:81229,46.3,-25.5,152.03,-0.28,0.61,0.6,0.9,0.99
6:9:33:52:81308,44.45,-25.74,155.95,-0.34,0.58,0.61,0.9,0.9
6:9:33:52:81403,41.87,-24.58,160.62,-0.46,0.6,0.69,1.03,0.94
6:9:33:52:81500,38.96,-23.65,165.19,-0.46,0.57,0.75,1.05,1.03
6:9:33:53:81919,29.19,-25.85,178.33,-0.35,0.35,0.74,0.89,1.0
6:9:33:53:81998,26.39,-25.39,-177.48,-0.39,0.35,0.82,0.97,0.91
6:9:33:53:82127,22.84,-23.59,-171.37,-0.4,0.31,0.91,1.05,1.0
6:9:33:53:82205,19.4,-23.48,-164.9,-0.48,0.2,0.9,1.04,1.04
6:9:33:53:82286,16.76,-25.03,-160.83,-0.22,0.28,0.84,0.91,1.0
6:9:33:53:82415,15.72,-25.63,-157.46,-0.23,0.29,0.78,0.87,0.9
6:9:33:53:82511,15.53,-24.07,-154.09,-0.35,0.26,0.79,0.9,0.88
6:9:33:54:82913,8.8,-18.34,-143.31,-0.34,0.06,0.81,0.88,0.89
6:9:33:54:83024,9.13,-17.97,-140.48,-0.31,0.16,0.89,0.95,0.9
6:9:33:54:83104,10.51,-17.69,-137.74,-0.23,0.12,1.0,1.03,0.98
6:9:33:54:83200,9.13,-15.55,-137.87,-0.3,0.1,0.99,1.04,1.03
6:9:33:54:83310,7.59,-13.35,-136.29,-0.21,0.13,1.02,1.06,1.05
6:9:33:54:83406,6.77,-11.3,-135.67,-0.11,0.1,1.06,1.07,1.06
6:9:33:54:83503,5.77,-8.95,-133.86,-0.07,0.07,1.14,1.15,1.09
6:9:33:55:83901,5.9,3.46,-128.02,0.07,0.1,0.98,0.99,1.1
6:9:33:55:83996,6.03,3.51,-128.1,0.06,0.12,0.97,0.98,0.98
6:9:33:55:84094,5.27,2.58,-128.16,0.07,0.12,0.97,0.98,0.98
6:9:33:55:84203,4.74,2.01,-128.25,0.1,0.16,1.0,1.02,1.0
6:9:33:55:84316,5.57,2.15,-128.44,0.05,0.08,1.0,1.0,1.01
6:9:33:55:84395,6.25,1.93,-126.91,0.08,0.08,0.94,0.95,0.98
6:9:33:55:84491,6.18,0.94,-124.66,0.02,0.08,0.95,0.95,0.95
6:9:33:56:84913,4.62,1.23,-123.51,0.04,0.05,0.98,0.98,0.96
6:9:33:56:85004,5.05,1.61,-122.68,0.06,0.1,1.08,1.09,1.02
6:9:33:56:85100,5.69,1.09,-123.04,0.04,0.11,0.97,0.98,1.05
6:9:33:56:85196,5.58,0.08,-125.25,0.04,0.1,1.02,1.03,1.0
6:9:33:56:85323,6.05,-0.48,-126.48,0.04,0.08,0.93,0.93,1.0
6:9:33:56:85419,6.71,-0.59,-127.25,-0.0,0.14,0.94,0.95,0.94
6:9:33:57:85516,6.55,-0.51,-128.45,-0.01,0.1,0.94,0.95,0.95
6:9:33:57:85921,7.05,-1.74,-133.26,0.05,0.09,0.93,0.94,0.94
6:9:33:57:86011,7.04,-2.21,-132.21,-0.03,0.17,0.96,0.98,0.95
6:9:33:57:86108,5.62,-3.72,-133.03,-0.07,0.07,1.01,1.02,0.99
6:9:33:57:86203,6.21,-3.87,-133.6,-0.04,0.09,0.96,0.97,1.0
6:9:33:57:86299,6.46,-3.67,-133.75,-0.06,0.15,0.96,0.98,0.97
6:9:33:57:86459,6.07,-3.82,-134.51,-0.04,0.08,0.97,0.97,0.98
6:9:33:57:86507,5.41,-3.95,-134.85,-0.08,0.12,0.99,1.0,0.98
6:9:33:58:86913,4.81,-4.32,-135.79,-0.07,0.07,0.99,0.99,1.0
6:9:33:58:86994,4.75,-3.82,-135.95,-0.06,0.09,0.96,0.96,0.98
6:9:33:58:87106,4.42,-3.93,-136.26,-0.07,0.06,0.98,0.98,0.97
6:9:33:58:87218,4.37,-3.94,-136.43,-0.05,0.05,0.98,0.98,0.98
6:9:33:58:87315,4.49,-4.08,-136.58,-0.08,0.08,0.98,0.98,0.98
6:9:33:58:87411,4.26,-4.02,-136.51,-0.07,0.08,0.98,0.98,0.98
6:9:33:58:87507,4.53,-3.99,-136.54,-0.06,0.08,0.97,0.97,0.98
6:9:33:59:87909,4.48,-0.7,-133.1,-0.08,0.04,1.12,1.12,1.02
6:9:33:59:88020,3.76,-0.96,-131.86,0.0,0.16,1.05,1.07,1.1
6:9:33:59:88101,3.08,-1.2,-130.44,-0.02,0.08,1.05,1.06,1.06
6:9:33:59:88211,2.32,-1.2,-128.66,-0.02,0.06,1.06,1.06,1.06
6:9:33:59:88306,2.44,-1.41,-126.26,0.02,0.08,0.98,0.99,1.04
6:9:33:59:88402,4.38,-1.39,-123.49,0.06,0.04,0.94,0.94,0.97
6:9:34:0:88514,6.77,-1.18,-121.08,0.03,-0.01,0.91,0.91,0.93
6:9:34:0:88906,8.31,2.7,-119.85,0.06,0.15,0.89,0.9,0.91
6:9:34:0:89004,8.54,1.32,-120.28,0.04,0.13,0.97,0.98,0.93
6:9:34:0:89100,6.94,1.3,-120.64,0.01,0.1,1.0,1.01,0.99
6:9:34:0:89196,6.27,1.76,-120.83,0.02,0.17,1.03,1.04,1.02
6:9:34:0:89305,7.35,3.62,-120.65,0.14,0.13,0.96,0.98,1.02
6:9:34:0:89404,8.18,6.17,-119.72,0.08,0.12,0.91,0.92,0.96
6:9:34:1:89515,7.83,7.48,-118.59,0.09,0.1,0.91,0.92,0.92
6:9:34:1:89913,1.12,6.4,-118.65,0.13,0.08,0.99,1.0,0.95
6:9:34:1:89993,0.34,7.58,-118.97,0.07,0.0,0.96,0.96,0.99
6:9:34:1:90105,-0.63,7.53,-119.95,0.16,-0.07,0.98,1.0,0.97
6:9:34:1:90217,-2.38,7.22,-120.52,0.14,0.01,0.97,0.98,0.99
6:9:34:1:90313,-2.67,6.66,-120.4,0.13,-0.05,0.95,0.96,0.98
6:9:34:1:90424,-2.14,6.87,-120.07,0.11,-0.03,0.96,0.97,0.96
6:9:34:1:90503,-2.09,6.94,-119.76,0.12,-0.12,0.97,0.98,0.97
6:9:34:2:90914,-7.38,5.31,-121.26,0.01,-0.11,0.95,0.95,0.97
6:9:34:2:91026,-8.34,5.37,-121.57,0.08,-0.15,0.99,1.01,0.97
6:9:34:2:91104,-8.98,5.88,-121.36,0.14,-0.1,1.0,1.01,1.01
6:9:34:2:91202,-8.47,6.88,-120.63,0.08,-0.17,0.94,0.95,0.99
6:9:34:2:91299,-8.35,6.11,-120.74,0.1,-0.2,0.98,1.01,0.97
6:9:34:2:91411,-8.85,4.56,-120.9,0.11,-0.15,0.97,0.99,1.0
6:9:34:2:91491,-10.4,3.51,-121.11,0.05,-0.19,0.94,0.96,0.98
6:9:34:3:91924,-15.08,2.53,-119.03,0.03,-0.26,0.94,0.98,0.97
6:9:34:3:92044,-14.62,2.1,-117.25,0.07,-0.42,1.03,1.12,1.02
6:9:34:3:92123,-15.55,2.21,-113.9,0.01,-0.3,0.92,0.97,1.07
6:9:34:3:92219,-16.67,2.11,-114.34,0.05,-0.27,0.92,0.96,0.96
6:9:34:3:92315,-17.82,2.37,-115.08,0.06,-0.3,0.92,0.97,0.96
6:9:34:3:92411,-18.81,2.39,-115.96,0.08,-0.32,0.94,0.99,0.98
6:9:34:4:92540,-19.99,2.61,-116.86,0.05,-0.34,0.92,0.98,0.99
6:9:34:4:92921,-21.51,2.59,-116.01,0.07,-0.38,0.88,0.96,0.97
6:9:34:4:93009,-20.88,3.4,-115.37,0.08,-0.37,0.9,0.98,0.96
6:9:34:4:93106,-20.89,4.19,-115.11,0.09,-0.36,0.91,0.98,0.98
6:9:34:4:93217,-21.44,4.57,-115.11,0.09,-0.38,0.92,1.0,0.99
6:9:34:4:93299,-21.99,4.63,-115.2,0.08,-0.36,0.89,0.96,0.99
6:9:34:4:93409,-22.08,4.47,-115.09,0.08,-0.35,0.91,0.97,0.97
6:9:34:5:93522,-21.83,4.37,-115.07,0.07,-0.38,0.9,0.98,0.97
6:9:34:5:93924,-22.15,3.1,-114.77,0.04,-0.37,0.9,0.97,0.97
6:9:34:5:94012,-21.57,2.39,-114.63,0.05,-0.34,0.89,0.95,0.97
6:9:34:5:94109,-20.51,1.61,-114.38,0.02,-0.34,0.9,0.96,0.96
6:9:34:5:94204,-19.94,1.06,-114.2,0.03,-0.39,0.89,0.97,0.97
6:9:34:5:94316,-20.79,0.85,-114.79,0.01,-0.36,0.9,0.97,0.97
6:9:34:5:94429,-21.24,0.43,-115.07,0.04,-0.31,0.91,0.96,0.97
6:9:34:5:94492,-21.49,0.67,-115.17,0.03,-0.34,0.89,0.96,0.96
6:9:34:6:94935,-23.11,1.18,-115.91,0.01,-0.38,0.89,0.96,0.96
6:9:34:6:95000,-22.71,1.28,-116.03,0.03,-0.4,0.9,0.98,0.97
6:9:34:6:95110,-22.52,1.26,-116.16,0.04,-0.37,0.89,0.97,0.98
6:9:34:6:95222,-22.34,1.34,-116.24,0.04,-0.36,0.9,0.97,0.97
6:9:34:6:95303,-22.45,1.51,-116.4,0.03,-0.39,0.89,0.97,0.97
6:9:34:6:95399,-22.98,1.82,-116.05,0.03,-0.38,0.91,0.98,0.98
6:9:34:6:95511,-23.59,1.8,-115.59,0.04,-0.4,0.9,0.98,0.98
6:9:34:7:95931,-26.27,1.28,-115.52,0.02,-0.43,0.88,0.97,0.98
6:9:34:7:96031,-26.9,1.41,-115.35,0.03,-0.44,0.87,0.97,0.97
6:9:34:7:96095,-27.63,1.39,-115.01,0.03,-0.44,0.86,0.97,0.97
6:9:34:7:96191,-28.15,1.25,-114.66,0.02,-0.46,0.84,0.96,0.97
6:9:34:7:96302,-28.72,1.05,-114.28,0.03,-0.49,0.83,0.97,0.96
6:9:34:7:96399,-29.56,1.23,-114.27,0.03,-0.48,0.83,0.96,0.97
6:9:34:7:96494,-29.81,1.63,-114.29,0.03,-0.48,0.85,0.98,0.97
6:9:34:8:96912,-30.48,1.52,-115.02,0.04,-0.5,0.83,0.97,0.98
6:9:34:8:97007,-31.03,1.56,-115.05,0.04,-0.51,0.83,0.97,0.97
6:9:34:8:97118,-31.51,1.57,-115.21,0.03,-0.5,0.83,0.97,0.97
6:9:34:8:97232,-31.74,1.64,-115.32,0.03,-0.5,0.82,0.97,0.97
6:9:34:8:97327,-31.69,1.73,-115.42,0.04,-0.51,0.82,0.97,0.97
6:9:34:8:97407,-31.48,1.79,-115.56,0.03,-0.5,0.83,0.97,0.97
6:9:34:8:97503,-31.44,2.0,-115.61,0.03,-0.52,0.82,0.97,0.97
6:9:34:9:97920,-32.03,2.53,-115.99,0.07,-0.54,0.83,0.99,0.98
6:9:34:9:98000,-31.91,2.83,-116.15,0.05,-0.52,0.81,0.97,0.98
6:9:34:9:98097,-31.99,2.79,-116.19,0.06,-0.52,0.84,0.99,0.98
6:9:34:9:98223,-31.97,2.98,-116.27,0.06,-0.52,0.82,0.97,0.98
6:9:34:9:98319,-32.31,3.23,-116.2,0.06,-0.52,0.82,0.97,0.97
6:9:34:9:98431,-32.5,3.33,-116.16,0.06,-0.52,0.82,0.98,0.97
6:9:34:9:98512,-32.45,3.37,-116.21,0.05,-0.53,0.8,0.96,0.97
6:9:34:10:98915,-32.14,3.61,-116.39,0.06,-0.52,0.82,0.97,0.97
6:9:34:10:99026,-31.99,3.54,-116.48,0.05,-0.53,0.82,0.98,0.98
6:9:34:10:99107,-32.11,3.44,-116.51,0.07,-0.52,0.81,0.97,0.98
6:9:34:10:99202,-32.38,3.44,-116.56,0.05,-0.51,0.81,0.96,0.96
6:9:34:10:99300,-32.53,3.38,-116.66,0.06,-0.52,0.83,0.97,0.96
6:9:34:10:99412,-32.51,3.41,-116.57,0.07,-0.52,0.82,0.97,0.97
6:9:34:11:99522,-32.43,3.35,-116.68,0.07,-0.52,0.81,0.97,0.97
6:9:34:11:99916,-32.65,3.47,-116.97,0.06,-0.51,0.82,0.97,0.97
6:9:34:11:100026,-32.67,3.53,-116.96,0.05,-0.52,0.81,0.97,0.97
6:9:34:11:100105,-32.68,3.65,-116.98,0.07,-0.52,0.81,0.97,0.97
6:9:34:11:100201,-32.81,3.7,-117.03,0.06,-0.53,0.81,0.97,0.97
6:9:34:11:100329,-32.92,3.66,-117.05,0.06,-0.52,0.81,0.97,0.97
6:9:34:11:100409,-32.88,3.64,-117.19,0.06,-0.53,0.8,0.96,0.97
6:9:34:12:100520,-32.77,3.72,-117.3,0.08,-0.53,0.81,0.98,0.97
6:9:34:12:100914,-33.17,4.04,-117.25,0.06,-0.54,0.81,0.98,0.98
6:9:34:12:101010,-33.52,4.06,-117.08,0.06,-0.54,0.8,0.97,0.98
6:9:34:12:101122,-33.72,4.14,-116.96,0.07,-0.54,0.81,0.97,0.97
6:9:34:12:101202,-33.8,4.32,-116.88,0.09,-0.56,0.81,0.98,0.98
6:9:34:12:101314,-33.89,4.32,-116.88,0.08,-0.55,0.81,0.98,0.98
6:9:34:12:101410,-33.98,4.24,-116.86,0.07,-0.54,0.8,0.96,0.98
6:9:34:13:101523,-33.96,4.18,-116.91,0.07,-0.5,0.83,0.97,0.97
6:9:34:13:101917,-34.27,4.23,-116.98,0.08,-0.55,0.8,0.97,0.97
6:9:34:13:102013,-34.48,4.34,-116.99,0.07,-0.54,0.81,0.97,0.97
6:9:34:13:102108,-34.58,4.39,-117.09,0.07,-0.55,0.8,0.97,0.97
6:9:34:13:102205,-34.67,4.38,-117.13,0.08,-0.55,0.8,0.97,0.97
6:9:34:13:102299,-34.56,4.65,-117.05,0.08,-0.55,0.8,0.97,0.97
6:9:34:13:102395,-34.61,4.61,-117.09,0.07,-0.55,0.79,0.97,0.97
6:9:34:13:102507,-34.69,4.56,-117.07,0.08,-0.55,0.8,0.97,0.97
6:9:34:14:102915,-34.96,4.77,-116.93,0.09,-0.56,0.79,0.97,0.97
6:9:34:14:103010,-35.0,4.64,-116.99,0.07,-0.57,0.78,0.97,0.97
6:9:34:14:103106,-35.15,4.6,-116.97,0.09,-0.56,0.79,0.97,0.97
6:9:34:14:103233,-35.22,4.61,-116.98,0.08,-0.56,0.79,0.97,0.97
6:9:34:14:103297,-35.08,4.55,-117.01,0.1,-0.56,0.81,0.99,0.97
6:9:34:14:103393,-35.2,4.72,-116.98,0.07,-0.55,0.79,0.97,0.98
6:9:34:14:103489,-35.55,4.52,-116.96,0.07,-0.57,0.79,0.98,0.97
6:9:34:15:103918,-36.53,3.93,-117.29,0.06,-0.58,0.79,0.98,0.98
6:9:34:15:104008,-36.35,3.79,-117.49,0.07,-0.58,0.79,0.98,0.98
6:9:34:15:104104,-36.29,3.45,-117.7,0.06,-0.57,0.77,0.96,0.98
6:9:34:15:104201,-36.39,3.35,-117.78,0.07,-0.56,0.77,0.96,0.96
6:9:34:15:104330,-36.53,3.49,-117.89,0.06,-0.58,0.78,0.98,0.96
6:9:34:15:104408,-36.91,3.41,-117.88,0.06,-0.58,0.77,0.97,0.98
6:9:34:15:104506,-37.13,3.33,-117.84,0.05,-0.57,0.77,0.96,0.97
6:9:34:16:104913,-37.08,3.52,-117.97,0.06,-0.57,0.78,0.96,0.96
6:9:34:16:105007,-37.09,3.69,-117.85,0.08,-0.58,0.78,0.97,0.97
6:9:34:16:105088,-37.12,3.86,-117.68,0.06,-0.59,0.77,0.97,0.97
6:9:34:16:105200,-37.21,3.81,-117.63,0.06,-0.6,0.78,0.98,0.97
6:9:34:16:105311,-37.48,3.61,-117.57,0.08,-0.63,0.77,1.0,0.99
6:9:34:16:105407,-37.94,3.62,-117.43,0.06,-0.58,0.76,0.96,0.99
6:9:34:16:105504,-38.3,3.63,-117.54,0.06,-0.62,0.75,0.97,0.97
6:9:34:17:105920,-38.24,2.19,-117.81,0.04,-0.59,0.75,0.96,0.97
6:9:34:17:106001,-38.36,1.8,-117.6,0.07,-0.61,0.76,0.98,0.96
6:9:34:17:106112,-38.32,2.21,-117.57,0.04,-0.59,0.77,0.97,0.98
6:9:34:17:106207,-38.24,2.46,-117.77,0.01,-0.63,0.77,0.99,0.98
6:9:34:17:106319,-38.62,1.52,-117.88,0.01,-0.59,0.78,0.98,0.99
6:9:34:17:106415,-38.72,1.41,-117.4,0.03,-0.58,0.75,0.94,0.97
6:9:34:17:106511,-38.74,1.6,-117.37,0.03,-0.62,0.75,0.98,0.96
6:9:34:18:106915,-39.23,0.38,-116.45,0.06,-0.61,0.75,0.97,0.97
6:9:34:18:107026,-38.91,0.46,-115.99,0.05,-0.58,0.73,0.94,0.96
6:9:34:18:107139,-38.04,0.87,-115.99,0.02,-0.59,0.75,0.96,0.94
6:9:34:18:107203,-37.44,1.97,-116.0,0.05,-0.62,0.77,0.99,0.97
6:9:34:18:107315,-37.32,3.2,-116.25,0.05,-0.62,0.83,1.04,1.0
6:9:34:18:107412,-38.22,3.35,-116.04,0.04,-0.62,0.8,1.01,1.03
6:9:34:19:107522,-38.21,3.07,-114.47,0.15,-0.61,0.81,1.02,1.02
6:9:34:19:108017,-37.15,1.8,-110.86,0.04,-0.58,0.76,0.96,1.0
6:9:34:19:108114,-36.68,1.45,-110.87,0.04,-0.57,0.76,0.95,0.96
6:9:34:19:108209,-36.43,1.58,-111.5,0.04,-0.58,0.76,0.96,0.95
6:9:34:19:108322,-36.48,2.27,-112.34,0.07,-0.57,0.79,0.97,0.97
6:9:34:19:108400,-36.35,2.8,-113.65,0.01,-0.58,0.79,0.99,0.98
6:9:34:19:108512,-36.38,3.1,-114.1,0.07,-0.57,0.77,0.96,0.98
6:9:34:20:109004,-38.01,3.4,-112.76,0.02,-0.63,0.74,0.97,0.97
6:9:34:20:109100,-38.54,3.04,-112.09,0.08,-0.63,0.75,0.98,0.98
6:9:34:20:109195,-39.52,2.72,-112.3,0.08,-0.61,0.74,0.96,0.98
6:9:34:20:109306,-40.2,2.36,-112.94,0.08,-0.57,0.75,0.95,0.96
6:9:34:20:109418,-39.66,2.51,-113.33,0.04,-0.6,0.76,0.97,0.96
6:9:34:21:109515,-38.24,2.67,-113.17,0.06,-0.6,0.76,0.97,0.97
6:9:34:21:109916,-38.24,3.12,-112.81,0.06,-0.58,0.76,0.96,0.97
6:9:34:21:110011,-38.51,3.0,-112.65,0.07,-0.59,0.78,0.98,0.97
6:9:34:21:110125,-38.18,3.05,-112.6,0.04,-0.57,0.76,0.95,0.97
6:9:34:21:110220,-37.41,3.03,-112.25,0.05,-0.6,0.76,0.97,0.96
6:9:34:21:110300,-36.33,3.42,-112.19,0.05,-0.56,0.78,0.96,0.97
6:9:34:21:110396,-34.59,3.64,-112.14,0.07,-0.54,0.79,0.96,0.96
6:9:34:21:110492,-32.75,4.26,-111.78,0.1,-0.54,0.81,0.98,0.97
6:9:34:22:110911,-25.33,2.39,-109.58,0.02,-0.43,0.91,1.01,0.99
6:9:34:22:111007,-23.56,0.94,-109.41,0.03,-0.36,0.92,0.99,1.0
6:9:34:22:111120,-21.14,0.46,-108.87,-0.01,-0.35,0.9,0.97,0.98
6:9:34:22:111199,-17.86,0.43,-107.46,0.04,-0.36,0.94,1.01,0.98
6:9:34:22:111295,-14.64,0.21,-106.78,-0.0,-0.26,0.91,0.95,0.99
6:9:34:22:111455,-11.33,-0.19,-106.2,0.06,-0.19,0.96,0.98,0.96
6:9:34:22:111502,-7.81,0.1,-105.63,0.05,-0.14,0.9,0.91,0.96
6:9:34:23:111928,-0.62,-1.28,-109.34,0.03,-0.01,0.95,0.95,0.92
6:9:34:23:112010,-0.89,-2.07,-110.73,-0.05,-0.01,0.97,0.97,0.96
6:9:34:23:112106,-0.79,-2.43,-111.47,-0.06,0.03,0.95,0.95,0.96
6:9:34:23:112231,-0.23,-2.59,-111.89,-0.06,-0.0,0.93,0.93,0.94
6:9:34:23:112297,0.36,-2.41,-112.17,-0.01,-0.0,0.94,0.94,0.94
6:9:34:23:112393,0.5,-1.91,-112.38,-0.0,0.01,0.93,0.93,0.94
6:9:34:23:112503,0.04,-1.48,-112.77,-0.01,-0.0,0.96,0.96,0.94
6:9:34:24:112914,-4.25,-0.58,-113.86,-0.03,-0.03,1.0,1.0,0.98
6:9:34:24:112996,-4.32,-0.4,-113.64,0.01,-0.06,1.02,1.02,1.01
6:9:34:24:113123,-4.54,-0.1,-113.72,0.0,-0.07,0.98,0.99,1.01
6:9:34:24:113200,-4.77,-0.11,-113.98,-0.03,-0.07,0.97,0.97,0.98
6:9:34:24:113298,-4.98,-0.27,-114.11,0.01,-0.02,1.0,1.0,0.98
6:9:34:24:113411,-5.37,0.01,-114.1,0.0,-0.07,0.97,0.97,0.99
6:9:34:24:113491,-5.66,-0.11,-114.08,0.01,-0.11,0.99,1.0,0.98
6:9:34:25:113926,-1.85,-0.01,-113.6,0.01,-0.05,1.0,1.0,1.0
6:9:34:25:114009,-1.53,-0.18,-113.83,0.01,-0.06,0.98,0.99,1.0
6:9:34:25:114104,-2.22,-0.56,-114.28,-0.06,-0.03,1.0,1.01,0.99
6:9:34:25:114216,-2.06,-1.19,-114.37,0.01,-0.01,1.01,1.01,1.01
6:9:34:25:114312,-1.15,-1.02,-114.44,0.01,-0.04,1.0,1.01,1.01
6:9:34:25:114408,-0.22,-0.74,-114.45,0.0,-0.13,0.94,0.95,0.99
6:9:34:26:114517,0.11,-0.56,-114.44,-0.08,0.03,0.94,0.94,0.95
6:9:34:26:114913,1.38,-0.47,-114.47,-0.02,0.05,1.2,1.2,1.03
6:9:34:26:115025,1.75,-0.28,-114.42,-0.05,0.07,1.1,1.11,1.17
6:9:34:26:115120,2.26,-0.36,-114.41,-0.01,0.06,0.99,1.0,1.07
6:9:34:26:115215,2.65,-0.79,-114.46,-0.02,-0.05,0.84,0.84,0.94
6:9:34:26:115311,3.46,-0.59,-114.65,0.03,0.04,0.99,0.99,0.89
6:9:34:26:115423,4.5,0.03,-114.77,0.05,0.03,1.07,1.07,1.02
6:9:34:26:115502,5.27,0.79,-115.03,0.0,0.05,1.0,1.01,1.05
6:9:34:27:115941,4.64,0.24,-115.64,0.01,0.11,1.05,1.06,1.02
6:9:34:27:116021,4.94,-0.04,-115.5,-0.03,0.03,0.98,0.98,1.03
6:9:34:27:116101,5.17,-0.88,-115.58,-0.15,0.17,0.95,0.97,0.98
6:9:34:27:116214,4.64,-2.19,-116.55,-0.05,0.02,0.93,0.94,0.96
6:9:34:27:116295,3.98,-3.27,-117.78,-0.01,0.16,1.23,1.24,1.04
6:9:34:27:116407,3.54,-4.11,-118.97,-0.05,0.03,1.07,1.07,1.18
6:9:34:28:116517,3.26,-4.75,-119.88,-0.11,0.2,1.2,1.22,1.12
6:9:34:28:116915,3.3,-6.13,-120.58,-0.01,0.12,1.32,1.32,1.25
6:9:34:28:117028,3.58,-5.98,-120.32,-0.05,0.03,1.21,1.21,1.29
6:9:34:28:117108,3.77,-5.8,-119.96,-0.11,0.19,1.28,1.3,1.24
6:9:34:28:117217,4.15,-5.87,-119.73,-0.04,0.14,1.31,1.32,1.3
6:9:34:28:117314,4.67,-5.86,-119.69,-0.09,0.03,1.13,1.14,1.26
6:9:34:28:117394,5.24,-5.64,-119.66,-0.18,0.1,1.2,1.22,1.17
6:9:34:29:117522,5.47,-5.58,-119.84,-0.08,0.17,1.28,1.29,1.24
6:9:34:29:117934,4.09,-5.25,-120.27,-0.05,0.09,1.12,1.12,1.23
6:9:34:29:117995,3.63,-5.12,-120.07,-0.24,0.27,1.16,1.22,1.15
6:9:34:29:118123,3.53,-5.14,-119.87,-0.01,0.03,1.08,1.08,1.17
6:9:34:29:118201,3.48,-5.25,-119.86,-0.08,0.05,1.1,1.1,1.09
6:9:34:29:118298,3.12,-5.19,-119.58,-0.13,0.19,1.17,1.19,1.13
6:9:34:29:118394,2.78,-5.12,-119.19,0.08,-0.03,1.05,1.05,1.14
6:9:34:29:118507,2.84,-4.91,-118.92,-0.16,0.18,1.09,1.12,1.07
6:9:34:30:118939,3.35,-4.85,-118.6,0.03,-0.04,0.96,0.97,1.07
6:9:34:30:119018,3.03,-4.84,-118.75,-0.03,0.1,1.08,1.08,1.01
6:9:34:30:119114,2.82,-4.74,-118.68,-0.18,0.22,1.03,1.07,1.08
6:9:34:30:119225,2.77,-4.78,-118.67,0.03,0.0,0.98,0.99,1.04
6:9:34:30:119306,2.62,-5.18,-118.78,-0.09,0.03,1.02,1.02,1.0
6:9:34:30:119417,2.75,-5.07,-118.78,-0.07,0.03,0.94,0.94,0.99
6:9:34:30:119497,3.01,-4.59,-119.07,0.03,0.04,0.94,0.95,0.94
6:9:34:31:119915,4.18,-2.77,-119.57,-0.2,0.06,0.86,0.89,0.93
6:9:34:31:120011,3.97,-3.02,-119.46,-0.04,0.08,1.0,1.0,0.93
6:9:34:31:120106,3.6,-4.0,-119.46,-0.08,0.05,1.03,1.03,1.01
6:9:34:31:120218,3.06,-4.56,-119.26,-0.12,0.04,0.85,0.86,0.97
6:9:34:31:120299,2.78,-4.96,-119.09,0.0,0.12,1.0,1.01,0.91
6:9:34:31:120395,2.83,-4.86,-119.14,-0.1,0.1,1.05,1.06,1.03
6:9:34:31:120507,2.97,-4.73,-119.05,-0.15,0.09,1.02,1.04,1.05
6:9:34:32:120926,3.13,-4.75,-119.34,-0.07,0.14,1.14,1.15,1.08
6:9:34:32:121045,3.18,-4.53,-119.13,-0.23,0.16,1.0,1.04,1.11
6:9:34:32:121093,3.11,-5.08,-119.04,0.03,-0.07,0.99,0.99,1.02
6:9:34:32:121189,2.99,-5.57,-119.14,-0.13,-0.04,0.89,0.9,0.96
6:9:34:32:121300,2.81,-5.82,-119.04,-0.08,0.14,1.05,1.07,0.95
6:9:34:32:121413,2.37,-6.18,-119.09,0.01,0.07,1.04,1.04,1.06
6:9:34:32:121510,1.94,-6.29,-119.18,-0.24,0.21,0.93,0.99,1.02
6:9:34:33:121936,4.1,-5.6,-118.77,-0.02,-0.03,0.91,0.91,0.96
6:9:34:33:121994,4.66,-5.59,-118.79,-0.17,-0.01,0.95,0.96,0.93
6:9:34:33:122090,4.87,-5.85,-118.66,-0.17,0.06,0.9,0.92,0.95
6:9:34:33:122219,4.92,-6.49,-118.82,-0.05,0.1,1.09,1.1,0.98
6:9:34:33:122300,4.96,-6.91,-118.89,-0.17,0.13,1.03,1.05,1.08
6:9:34:33:122412,4.85,-7.14,-118.89,-0.09,0.14,1.0,1.01,1.04
6:9:34:34:122524,4.64,-7.42,-119.13,-0.08,0.09,0.95,0.95,0.99
6:9:34:34:123004,4.32,-7.17,-119.45,-0.02,0.07,0.99,0.99,0.97
6:9:34:34:123100,4.33,-7.05,-119.57,-0.22,0.21,0.98,1.02,1.0
6:9:34:34:123213,4.35,-6.68,-119.52,-0.1,0.09,0.9,0.91,0.99
6:9:34:34:123308,4.54,-6.51,-119.69,-0.1,-0.06,0.85,0.86,0.9
6:9:34:34:123419,4.54,-6.29,-119.69,-0.18,0.13,1.05,1.07,0.93
6:9:34:35:123516,4.24,-6.44,-119.7,0.0,0.07,1.11,1.11,1.09
6:9:34:35:123929,3.61,-6.57,-119.83,-0.2,0.02,0.84,0.87,1.03
6:9:34:35:123999,4.18,-5.53,-119.69,-0.01,0.18,1.0,1.02,0.92
6:9:34:35:124112,5.83,-3.57,-119.86,-0.19,0.07,0.85,0.87,0.97
6:9:34:35:124208,7.54,-1.67,-119.62,-0.2,0.25,1.03,1.08,0.94
6:9:34:35:124304,9.96,-0.06,-119.57,-0.05,0.02,1.11,1.12,1.09
6:9:34:35:124400,11.97,1.49,-119.4,-0.22,-0.09,0.86,0.89,1.04
6:9:34:35:124512,13.36,2.64,-119.22,-0.12,0.03,0.97,0.97,0.92
6:9:34:36:124921,8.3,-4.58,-120.81,-0.17,0.15,1.06,1.09,1.01
6:9:34:36:125016,4.93,-6.57,-120.56,-0.03,0.0,1.02,1.02,1.07
6:9:34:36:125096,1.79,-7.75,-119.96,-0.08,0.2,1.05,1.07,1.04
6:9:34:36:125208,-0.12,-8.35,-119.54,-0.14,0.15,0.96,0.98,1.04
6:9:34:36:125337,-1.32,-8.95,-119.24,-0.09,0.2,1.01,1.03,1.0
6:9:34:36:125415,-2.03,-10.03,-119.28,-0.08,0.18,0.94,0.96,1.01
6:9:34:36:125513,-2.18,-10.28,-119.32,-0.17,0.16,0.85,0.88,0.94
6:9:34:37:125918,0.38,-8.59,-120.0,0.03,0.08,1.13,1.13,0.96
6:9:34:37:126012,1.11,-7.77,-120.22,-0.18,0.24,0.98,1.03,1.1
6:9:34:37:126109,2.02,-6.89,-120.28,-0.08,0.12,0.96,0.97,1.01
6:9:34:37:126212,2.47,-6.51,-120.36,-0.14,0.11,0.93,0.94,0.96
6:9:34:37:126333,2.56,-6.15,-120.22,-0.2,0.0,0.88,0.9,0.93
6:9:34:37:126413,2.76,-6.37,-120.11,0.03,-0.01,0.96,0.96,0.92
6:9:34:37:126510,3.22,-6.69,-120.07,-0.11,0.17,1.02,1.04,0.99
6:9:34:38:126919,4.48,-6.77,-119.86,-0.07,0.05,0.91,0.91,1.0
6:9:34:38:127014,4.73,-6.72,-120.07,-0.06,-0.03,0.88,0.88,0.9
6:9:34:38:127094,4.98,-6.52,-120.11,-0.18,0.08,0.85,0.87,0.88
6:9:34:38:127190,4.84,-6.53,-120.09,-0.06,0.07,0.98,0.98,0.91
6:9:34:38:127303,4.9,-6.59,-120.26,-0.14,0.12,0.91,0.93,0.97
6:9:34:38:127415,5.19,-6.64,-120.31,-0.11,0.03,0.99,1.0,0.95
6:9:34:39:127527,5.22,-6.65,-120.47,0.02,-0.09,0.91,0.91,0.97
6:9:34:39:127915,5.18,-6.3,-120.87,-0.16,0.12,0.93,0.95,0.92
6:9:34:39:128010,5.01,-5.84,-120.94,-0.06,0.06,0.86,0.87,0.92
6:9:34:39:128108,4.73,-5.38,-120.82,-0.15,0.1,1.02,1.04,0.92
6:9:34:39:128234,4.13,-5.17,-120.42,-0.02,-0.03,0.91,0.91,1.0
6:9:34:39:128329,4.03,-4.93,-120.1,-0.04,0.03,1.04,1.04,0.96
6:9:34:39:128425,4.31,-4.9,-119.98,-0.07,-0.08,0.93,0.93,1.0
6:9:34:40:128522,4.7,-5.04,-119.88,-0.01,0.02,0.96,0.96,0.94
6:9:34:40:128930,5.52,-6.46,-120.12,-0.1,0.01,1.01,1.02,0.98
6:9:34:40:129019,5.42,-6.56,-120.13,-0.11,0.03,1.04,1.05,1.03
6:9:34:40:129114,5.21,-6.53,-119.87,-0.06,-0.05,1.01,1.01,1.03
6:9:34:40:129194,5.24,-6.63,-119.86,-0.09,-0.02,0.85,0.85,0.96
6:9:34:40:129321,5.26,-6.91,-119.78,-0.18,0.21,1.0,1.04,0.92
6:9:34:40:129402,5.44,-6.59,-119.71,-0.13,0.2,1.07,1.1,1.06
6:9:34:40:129497,5.91,-6.63,-119.92,-0.12,0.08,1.05,1.06,1.09
6:9:34:41:130008,4.28,-8.21,-120.46,-0.15,0.19,1.0,1.03,1.05
6:9:34:41:130104,4.24,-8.17,-120.6,-0.19,0.08,0.96,0.99,1.01
6:9:34:41:130200,4.26,-8.17,-120.75,-0.05,-0.09,0.99,0.99,0.99
6:9:34:41:130296,4.02,-7.96,-120.87,-0.06,0.09,1.08,1.09,1.02
6:9:34:41:130405,3.42,-7.41,-120.84,-0.17,0.15,1.08,1.11,1.09
6:9:34:41:130503,3.12,-6.85,-120.82,-0.12,0.12,1.06,1.07,1.1
6:9:34:42:131012,3.58,-5.47,-120.64,-0.16,0.09,0.97,0.98,1.04
6:9:34:42:131107,3.97,-5.53,-120.73,-0.12,0.02,0.93,0.93,0.97
6:9:34:42:131204,4.31,-5.73,-120.77,-0.08,-0.04,0.88,0.88,0.92
6:9:34:42:131331,4.69,-6.15,-120.8,-0.0,0.0,0.95,0.95,0.9
6:9:34:42:131410,5.06,-6.25,-120.88,-0.18,0.16,0.91,0.94,0.95
6:9:34:42:131507,5.09,-6.51,-120.92,-0.15,0.12,1.05,1.07,0.99
6:9:34:43:131996,4.17,-6.78,-120.69,-0.04,0.17,1.07,1.09,1.08
6:9:34:43:132108,3.93,-7.27,-120.82,-0.17,0.04,1.0,1.01,1.06
6:9:34:43:132221,3.48,-7.53,-120.82,-0.22,0.09,0.98,1.01,1.01
6:9:34:43:132302,3.03,-7.77,-120.81,-0.08,-0.07,0.97,0.98,1.0
6:9:34:43:132396,2.82,-7.98,-120.84,-0.14,0.06,0.91,0.92,0.96
6:9:34:43:132493,3.01,-8.01,-120.9,-0.14,0.09,1.08,1.09,0.98
6:9:34:44:133000,3.92,-8.0,-121.57,-0.14,0.03,0.97,0.98,1.06
6:9:34:44:133127,4.15,-7.93,-121.79,-0.17,0.18,0.98,1.01,0.99
6:9:34:44:133207,4.22,-7.94,-122.01,-0.13,0.12,1.0,1.02,1.02
6:9:34:44:133304,3.86,-7.75,-121.97,-0.23,0.09,1.03,1.06,1.03
6:9:34:44:133399,3.38,-7.66,-121.9,-0.14,-0.04,0.91,0.93,1.01
6:9:34:44:133511,2.84,-7.96,-122.05,-0.09,-0.04,0.83,0.84,0.9
6:9:34:45:133998,-1.61,-5.89,-120.48,-0.03,-0.05,0.98,0.98,0.88
6:9:34:45:134108,-1.04,-6.21,-120.19,-0.13,-0.08,0.93,0.94,0.97
6:9:34:45:134206,0.19,-6.62,-120.18,-0.06,-0.05,0.92,0.92,0.93
6:9:34:45:134319,1.57,-6.98,-120.47,-0.16,0.07,1.03,1.04,0.96
6:9:34:45:134413,2.82,-7.3,-120.82,-0.1,0.04,0.92,0.93,1.0
6:9:34:46:134542,3.81,-7.29,-121.16,-0.11,0.08,1.08,1.08,0.98
6:9:34:46:134998,2.79,-8.72,-122.36,-0.04,0.13,1.02,1.03,1.07
6:9:34:46:135094,2.66,-8.8,-122.26,-0.12,0.19,0.97,0.99,1.02
6:9:34:46:135222,2.63,-8.49,-122.21,-0.17,0.04,0.93,0.94,0.98
6:9:34:46:135303,2.58,-8.51,-122.23,-0.09,-0.07,0.8,0.81,0.9
6:9:34:46:135400,2.47,-8.38,-122.19,-0.12,-0.04,0.85,0.86,0.82
6:9:34:46:135494,2.67,-8.0,-122.13,-0.11,0.05,0.9,0.91,0.88
6:9:34:47:135992,2.76,-8.34,-121.47,-0.2,0.05,1.06,1.08,0.96
6:9:34:47:136120,2.21,-9.04,-121.1,-0.11,-0.01,1.02,1.02,1.06
6:9:34:47:136217,1.65,-9.25,-120.68,-0.21,-0.04,1.02,1.04,1.03
6:9:34:47:136311,1.13,-9.41,-120.13,-0.21,0.02,1.02,1.04,1.04
6:9:34:47:136391,1.08,-9.72,-119.75,-0.17,0.06,1.11,1.12,1.07
6:9:34:48:136519,1.18,-9.96,-119.57,-0.2,-0.04,0.98,1.0,1.08
6:9:34:48:137001,0.86,-8.72,-119.62,-0.27,0.14,1.04,1.08,1.02
6:9:34:48:137113,0.57,-8.82,-119.09,-0.18,0.0,0.97,0.99,1.05
6:9:34:48:137240,1.22,-9.07,-119.06,-0.09,0.03,1.04,1.05,1.01
6:9:34:48:137303,2.24,-9.03,-119.28,-0.13,-0.11,0.93,0.95,1.01
6:9:34:48:137432,3.1,-9.03,-119.67,-0.12,-0.09,0.99,1.0,0.97
6:9:34:48:137511,4.04,-9.52,-120.31,-0.13,0.04,1.02,1.03,1.01
6:9:34:49:138016,-1.12,-7.94,-119.39,-0.17,0.07,0.98,0.99,1.02
6:9:34:49:138095,-1.76,-8.04,-118.54,-0.06,-0.01,0.96,0.96,0.98
6:9:34:49:138207,-1.43,-8.24,-118.24,-0.2,0.07,1.12,1.14,1.02
6:9:34:49:138318,-0.07,-8.38,-118.03,-0.19,0.07,0.98,1.01,1.1
6:9:34:49:138399,1.59,-8.78,-118.23,-0.09,0.12,0.98,0.99,1.0
6:9:34:49:138510,2.98,-8.81,-118.7,-0.19,0.05,1.0,1.02,1.0
6:9:34:50:138953,4.35,-7.73,-119.92,-0.09,-0.08,0.8,0.81,0.95
6:9:34:50:139034,3.98,-8.43,-120.09,-0.13,0.05,0.84,0.85,0.82
6:9:34:50:139112,3.33,-8.67,-120.14,-0.13,0.12,1.06,1.08,0.93
6:9:34:50:139209,2.68,-8.64,-119.97,-0.11,0.12,1.02,1.04,1.06
6:9:34:50:139305,2.06,-8.53,-119.84,-0.2,0.27,1.02,1.08,1.05
6:9:34:50:139402,1.79,-7.83,-119.65,-0.19,0.22,1.1,1.14,1.1
6:9:34:50:139512,2.06,-7.04,-119.57,-0.17,0.22,1.05,1.09,1.12
6:9:34:51:140034,5.53,-6.08,-121.08,-0.11,-0.08,0.79,0.8,0.99
6:9:34:51:140131,5.3,-6.47,-121.31,-0.15,0.12,0.96,0.98,0.86
6:9:34:51:140209,5.16,-6.82,-121.54,-0.07,-0.01,0.88,0.89,0.95
6:9:34:51:140307,4.52,-7.1,-121.74,-0.08,0.04,0.96,0.97,0.91
6:9:34:51:140403,3.25,-7.47,-121.54,-0.19,0.18,1.0,1.03,0.99
6:9:34:51:140499,1.69,-7.85,-121.09,-0.04,0.09,0.96,0.96,1.01
6:9:34:52:140991,0.16,-6.96,-119.43,-0.15,0.08,0.9,0.91,0.95
6:9:34:52:141103,0.67,-6.84,-119.37,-0.14,0.02,0.94,0.95,0.93
6:9:34:52:141198,1.52,-6.47,-119.5,-0.07,-0.05,0.96,0.97,0.96
6:9:34:52:141294,2.76,-6.46,-119.59,-0.08,-0.06,0.92,0.93,0.95
6:9:34:52:141390,4.04,-6.8,-119.67,-0.02,-0.1,0.9,0.91,0.92
6:9:34:52:141502,5.3,-7.06,-119.83,-0.05,-0.09,0.76,0.77,0.86
6:9:34:53:142039,10.34,-6.72,-123.22,-0.06,0.07,0.93,0.93,0.82
6:9:34:53:142104,9.57,-6.6,-123.71,-0.13,0.11,1.04,1.05,0.97
6:9:34:53:142200,7.87,-6.6,-123.75,-0.12,0.08,0.99,1.0,1.03
6:9:34:53:142295,5.42,-6.56,-123.29,-0.2,0.06,0.88,0.91,0.97
6:9:34:53:142407,2.8,-6.49,-122.51,-0.16,0.09,0.84,0.86,0.89
6:9:34:53:142503,0.99,-6.51,-121.71,-0.15,0.03,0.96,0.97,0.9
6:9:34:54:142599,0.09,-6.36,-121.03,-0.14,0.02,0.87,0.88,0.94
6:9:34:54:143004,2.1,-7.01,-119.56,-0.07,-0.12,0.94,0.95,0.9
6:9:34:54:143101,3.59,-7.15,-119.85,-0.01,-0.08,0.91,0.91,0.94
6:9:34:54:143229,5.28,-6.98,-120.43,-0.13,-0.02,0.98,0.98,0.94
6:9:34:54:143309,6.93,-6.78,-121.01,-0.11,0.1,1.02,1.03,1.0
6:9:34:54:143405,8.09,-6.57,-121.71,-0.09,0.11,0.96,0.97,1.01
6:9:34:54:143501,8.54,-6.36,-122.36,-0.12,0.08,0.96,0.98,0.97
6:9:34:55:143997,1.23,-5.95,-121.54,-0.16,0.14,0.97,0.99,0.98
6:9:34:55:144109,-0.56,-5.93,-120.51,-0.18,0.16,1.01,1.03,1.01
6:9:34:55:144205,-1.58,-6.18,-119.57,-0.16,0.2,1.01,1.04,1.04
6:9:34:55:144302,-1.5,-6.47,-118.75,-0.17,0.06,1.04,1.05,1.05
6:9:34:55:144397,-0.55,-6.76,-118.08,-0.12,0.08,0.94,0.95,1.02
6:9:34:56:144525,1.14,-7.02,-117.79,-0.14,0.06,1.0,1.01,0.97
6:9:34:56:145013,11.29,-7.02,-122.21,-0.04,-0.12,0.88,0.89,0.97
6:9:34:56:145111,11.12,-6.92,-123.14,-0.13,-0.1,0.91,0.92,0.9
6:9:34:56:145237,9.93,-6.8,-123.76,-0.09,-0.11,0.91,0.92,0.92
6:9:34:56:145318,7.62,-6.82,-124.07,-0.11,-0.09,0.84,0.85,0.9
6:9:34:56:145435,4.36,-6.82,-123.7,-0.1,-0.06,0.85,0.85,0.85
6:9:34:57:145526,1.01,-6.77,-122.94,-0.05,-0.04,0.93,0.93,0.88
6:9:34:57:146004,-1.29,-6.9,-118.46,-0.04,-0.06,0.92,0.92,0.93
6:9:34:57:146107,1.3,-7.15,-118.6,-0.05,-0.09,0.9,0.9,0.91
6:9:34:57:146230,4.3,-7.18,-119.17,-0.11,-0.12,0.86,0.87,0.89
6:9:34:57:146294,7.51,-7.19,-120.02,-0.09,-0.05,0.89,0.9,0.88
6:9:34:57:146405,10.33,-6.83,-121.36,-0.1,-0.08,0.91,0.92,0.9
6:9:34:57:146502,12.24,-6.25,-122.61,-0.06,-0.08,0.92,0.92,0.92
6:9:34:58:147053,6.32,-1.74,-124.16,-0.22,0.15,1.06,1.09,0.98
6:9:34:58:147115,3.5,-1.68,-123.21,-0.1,0.04,1.08,1.09,1.09
6:9:34:58:147230,1.06,-2.15,-122.07,-0.19,0.14,1.07,1.1,1.09
6:9:34:58:147325,-0.62,-3.17,-120.8,-0.15,0.15,1.1,1.12,1.1
6:9:34:58:147438,-1.35,-4.24,-119.5,-0.09,0.09,1.07,1.08,1.1
6:9:34:59:147518,-1.2,-5.09,-118.5,-0.12,0.14,1.0,1.02,1.06
6:9:34:59:148028,5.99,-8.06,-119.97,-0.03,-0.02,0.93,0.93,0.99
6:9:34:59:148092,6.56,-8.39,-120.82,-0.12,0.06,0.95,0.95,0.94
6:9:34:59:148218,6.44,-8.56,-121.53,-0.05,-0.04,0.97,0.97,0.96
6:9:34:59:148330,5.7,-8.97,-122.01,-0.16,0.04,1.06,1.07,1.0
6:9:34:59:148410,4.72,-10.01,-122.02,-0.12,0.06,1.01,1.01,1.05
6:9:34:59:148490,4.31,-11.21,-121.63,-0.06,-0.03,1.02,1.02,1.02
6:9:35:0:148957,7.64,-9.45,-121.66,-0.11,-0.04,0.89,0.89,0.98
6:9:35:0:149034,7.89,-8.09,-121.84,-0.08,-0.01,1.02,1.03,0.94
6:9:35:0:149131,7.68,-7.31,-121.96,-0.13,0.09,1.06,1.07,1.04
6:9:35:0:149227,6.95,-6.91,-121.88,-0.13,-0.04,0.93,0.94,1.02
6:9:35:0:149305,5.87,-6.84,-121.51,-0.05,-0.07,0.85,0.85,0.91
6:9:35:0:149419,4.63,-6.55,-121.0,-0.07,0.03,0.91,0.91,0.87
6:9:35:1:149530,3.24,-6.11,-120.38,-0.12,0.0,1.07,1.07,0.97
6:9:35:1:149995,1.79,-5.69,-118.28,-0.21,0.08,0.92,0.95,1.03
6:9:35:1:150139,2.89,-5.62,-118.32,-0.11,0.13,1.01,1.02,0.97
6:9:35:1:150219,4.08,-5.75,-118.63,-0.19,0.23,1.09,1.13,1.06
6:9:35:1:150331,5.11,-5.96,-118.83,-0.17,0.16,1.13,1.15,1.14
6:9:35:1:150426,5.94,-6.26,-119.11,-0.06,0.11,1.07,1.08,1.13
6:9:35:2:150522,6.4,-6.59,-119.46,-0.09,0.05,1.07,1.08,1.08
6:9:35:2:151047,1.15,-7.27,-118.31,-0.07,0.09,0.73,0.74,0.96
6:9:35:2:151127,0.07,-7.32,-118.14,-0.14,0.16,0.81,0.84,0.77
6:9:35:2:151206,-1.22,-7.36,-117.92,-0.13,0.13,0.6,0.63,0.77
6:9:35:2:151335,-2.64,-7.18,-117.87,-0.12,0.04,0.62,0.63,0.63
6:9:35:2:151479,-4.14,-7.02,-117.84,-0.09,0.12,0.83,0.84,0.7
6:9:35:2:151512,-5.35,-6.91,-117.78,-0.07,0.15,0.72,0.74,0.81
6:9:35:3:152002,-7.85,-7.42,-117.7,-0.08,0.01,0.63,0.64,0.71
6:9:35:3:152099,-8.12,-7.61,-117.71,-0.08,0.01,0.63,0.63,0.64
6:9:35:3:152243,-8.1,-7.74,-117.76,-0.06,0.1,0.84,0.84,0.7
6:9:35:3:152371,-7.86,-7.77,-117.78,-0.03,0.06,0.88,0.88,0.86
6:9:35:3:152403,-7.44,-7.77,-117.86,-0.08,0.03,0.75,0.75,0.84
6:9:35:4:152548,-6.68,-7.76,-117.92,-0.08,-0.01,0.8,0.8,0.77
6:9:35:4:153031,-2.1,-7.28,-119.05,-0.3,0.15,0.91,0.97,0.86
6:9:35:4:153172,-1.31,-7.34,-118.94,-0.06,0.03,1.03,1.03,0.99
6:9:35:4:153190,-0.45,-7.53,-118.88,-0.17,0.12,1.17,1.19,1.09
6:9:35:4:153302,0.38,-7.55,-118.71,-0.14,0.01,1.02,1.03,1.14
6:9:35:4:153414,0.7,-7.89,-118.54,-0.05,0.06,1.01,1.02,1.03
6:9:35:5:153574,1.08,-8.21,-118.6,-0.08,-0.02,1.02,1.02,1.02
6:9:35:5:153602,1.4,-8.11,-118.54,-0.21,0.09,0.99,1.02,1.02
6:9:35:5:153937,2.05,-7.26,-118.9,-0.1,0.09,1.06,1.06,1.03
6:9:35:5:154028,2.31,-6.93,-119.13,-0.07,-0.1,0.84,0.85,0.99
6:9:35:5:154123,2.23,-6.7,-118.94,-0.21,0.12,0.96,0.99,0.9
6:9:35:5:154202,2.17,-6.82,-118.89,-0.1,0.06,1.02,1.03,1.0
6:9:35:5:154299,2.49,-6.96,-119.04,-0.17,0.05,1.01,1.02,1.03
6:9:35:5:154428,2.68,-7.11,-118.95,-0.14,0.12,1.01,1.03,1.03
6:9:35:5:154505,2.63,-7.29,-119.0,-0.02,-0.09,0.91,0.91,0.99
6:9:35:6:154965,2.39,-6.86,-118.83,-0.13,-0.15,0.74,0.76,0.86
6:9:35:6:155047,2.36,-6.82,-118.84,-0.04,-0.01,0.85,0.85,0.79
6:9:35:6:155146,2.33,-6.98,-118.87,-0.22,-0.01,0.89,0.91,0.87
6:9:35:6:155241,2.45,-7.36,-118.77,-0.31,0.19,1.01,1.08,0.97
6:9:35:6:155288,2.64,-7.8,-118.8,-0.22,0.22,1.16,1.2,1.12
6:9:35:6:155481,2.41,-7.83,-118.65,-0.18,0.04,1.0,1.02,1.14
6:9:35:7:155529,2.55,-7.91,-118.62,-0.02,-0.02,1.05,1.05,1.03
6:9:35:7:156034,2.73,-8.39,-118.47,0.04,-0.09,0.89,0.89,1.0
6:9:35:7:156098,3.05,-8.1,-118.61,-0.18,0.0,0.99,1.01,0.93
6:9:35:7:156211,3.19,-7.77,-118.34,-0.17,0.09,0.99,1.01,1.01
6:9:35:7:156291,3.24,-7.98,-118.56,-0.02,-0.2,0.85,0.87,0.96
6:9:35:7:156402,2.84,-7.91,-118.51,-0.26,0.25,1.02,1.08,0.94
6:9:35:8:156546,2.4,-8.09,-118.6,-0.13,0.03,0.96,0.96,1.04
6:9:35:8:156934,1.89,-9.16,-118.52,-0.18,0.11,1.01,1.03,0.99
6:9:35:8:157025,1.76,-9.18,-118.74,-0.13,-0.04,0.94,0.95,1.0
6:9:35:8:157104,1.45,-8.64,-118.82,-0.28,0.16,1.07,1.12,1.01
6:9:35:8:157248,1.23,-8.43,-118.73,-0.12,0.1,1.08,1.09,1.11
6:9:35:8:157329,1.22,-8.61,-118.7,-0.17,0.09,0.99,1.01,1.06
6:9:35:8:157425,1.32,-8.65,-118.56,-0.23,0.08,0.93,0.97,0.99
6:9:35:8:157503,1.5,-8.64,-118.44,-0.17,0.0,0.96,0.97,0.97
6:9:35:9:158010,2.17,-8.66,-118.08,0.07,-0.23,0.78,0.81,0.92
6:9:35:9:158107,2.23,-8.63,-118.19,-0.17,-0.1,0.76,0.79,0.8
6:9:35:9:158201,2.23,-8.58,-117.99,-0.11,0.01,0.9,0.91,0.83
6:9:35:9:158313,2.54,-8.75,-118.09,-0.05,-0.06,1.04,1.04,0.95
6:9:35:9:158409,2.69,-8.7,-118.16,-0.09,-0.09,0.85,0.86,0.98
6:9:35:9:158489,2.77,-8.57,-118.22,-0.05,-0.09,0.9,0.9,0.87
6:9:35:10:159006,2.37,-7.02,-118.91,-0.23,0.07,1.0,1.03,0.94
6:9:35:10:159102,2.08,-6.65,-118.87,-0.05,0.04,0.94,0.94,1.0
6:9:35:10:159230,2.09,-6.56,-118.95,-0.09,-0.02,0.97,0.98,0.95
6:9:35:10:159327,2.33,-6.65,-118.83,-0.18,0.12,0.95,0.98,0.98
6:9:35:10:159422,2.69,-7.02,-118.85,-0.07,-0.04,0.92,0.92,0.96
6:9:35:10:159502,2.84,-7.44,-118.88,-0.18,0.05,0.95,0.97,0.94
6:9:35:11:160012,2.99,-8.36,-118.79,-0.13,-0.05,0.89,0.9,0.95
6:9:35:11:160105,2.95,-8.47,-118.47,-0.17,0.06,1.02,1.03,0.95
6:9:35:11:160238,3.62,-8.33,-118.9,-0.05,0.01,0.28,0.28,0.78
6:9:35:12:160545,3.18,-4.59,-120.54,-0.04,0.04,0.0,0.05,0.21
6:9:35:12:160587,12.78,-16.15,-119.58,-0.47,0.2,0.96,1.08,0.4
6:9:35:12:160588,4.77,-6.51,-115.22,-0.03,-0.01,1.08,1.08,1.08
6:9:35:12:161078,27.27,-12.48,-128.74,-0.05,0.03,-0.0,0.05,0.74
6:9:35:12:161144,30.41,-12.47,-132.2,-0.06,0.01,0.02,0.07,0.06
6:9:35:12:161332,31.67,-10.02,-134.3,-0.07,0.03,0.04,0.09,0.07
6:9:35:12:161385,31.19,-4.25,-134.47,-0.07,0.03,0.05,0.09,0.09
6:9:35:12:161415,28.65,4.38,-132.65,-0.06,0.05,0.06,0.1,0.09
6:9:35:13:161573,22.99,16.03,-130.43,-0.04,0.06,0.08,0.11,0.1
6:9:35:13:161826,15.06,29.72,-130.8,-0.0,0.01,0.13,0.13,0.12
6:9:35:13:161979,16.84,4.52,-145.26,-0.07,0.08,0.17,0.2,0.15
6:9:35:13:162188,22.23,-6.62,-153.46,-0.08,0.06,0.26,0.28,0.23
6:9:35:13:162211,24.23,-11.05,-159.76,-0.12,0.08,0.26,0.3,0.29
6:9:35:13:162212,21.44,-8.75,-162.85,-0.13,0.11,0.31,0.35,0.32
6:9:35:13:162338,5.87,-0.7,-162.23,-0.04,-0.03,0.38,0.38,0.36
6:9:35:13:162417,-5.84,10.9,-155.22,-0.02,-0.05,0.39,0.4,0.39
6:9:35:14:162527,4.56,18.75,-138.86,-0.0,0.04,0.35,0.35,0.38
6:9:35:14:163008,27.01,-11.28,-125.72,-0.36,0.48,0.82,1.02,0.57
6:9:35:14:163120,13.8,-5.3,-138.73,-0.12,-0.0,0.82,0.83,0.95
6:9:35:14:163216,2.56,2.08,-154.4,0.18,-0.06,0.83,0.85,0.84
6:9:35:14:163328,21.13,-14.38,-154.16,-0.26,0.38,1.11,1.2,0.97
6:9:35:14:163424,18.66,-12.21,-135.6,0.28,0.25,1.42,1.47,1.29
6:9:35:14:163502,7.11,-23.84,-100.68,-0.18,0.25,1.88,1.91,1.62
6:9:35:15:163599,-1.79,-27.78,-56.56,-0.29,-0.04,1.44,1.47,1.76
6:9:35:15:164000,25.29,1.81,-120.71,-0.78,0.37,1.31,1.57,1.5
6:9:35:15:164097,28.57,-3.85,-61.63,-0.29,0.08,1.34,1.37,1.5
6:9:35:15:164224,15.43,-12.76,-16.38,-0.29,0.46,1.49,1.59,1.44
6:9:35:15:164319,3.73,-1.98,20.1,-0.13,0.25,1.78,1.8,1.66
6:9:35:15:164431,2.19,-7.36,24.42,-1.07,0.39,4.15,4.3,2.64
6:9:35:15:164511,1.68,-11.37,-29.7,-1.67,-0.18,3.98,4.32,4.31
6:9:35:17:166001,-8.45,-2.19,173.33,-0.08,0.08,1.13,1.13,3.26
6:9:35:17:166113,-6.35,-4.97,-170.08,-0.11,0.28,1.34,1.37,1.21
6:9:35:17:166193,-8.41,3.41,-145.32,-0.13,0.18,1.53,1.54,1.43
6:9:35:17:166305,-5.08,6.8,-119.11,-0.16,0.28,1.46,1.49,1.53
6:9:35:17:166401,-5.47,-3.2,-109.36,-0.16,0.36,1.5,1.55,1.51
6:9:35:17:166497,-5.69,-14.68,-118.14,-0.15,0.2,1.54,1.56,1.55
6:9:35:18:167009,-27.58,-31.85,-64.95,-0.15,0.21,1.01,1.05,1.39
6:9:35:18:167103,-20.59,-38.17,-72.21,-0.07,0.07,0.94,0.94,1.01
6:9:35:18:167214,-15.75,-39.9,-73.51,-0.11,0.03,0.95,0.96,0.95
6:9:35:18:167327,-20.13,-37.81,-60.49,-0.12,0.08,0.88,0.89,0.94
6:9:35:18:167407,-29.36,-30.86,-40.66,-0.15,0.1,0.91,0.93,0.91
6:9:35:18:167503,-33.72,-23.17,-26.02,-0.13,0.15,0.92,0.94,0.93
6:9:35:19:167608,-30.35,-21.91,-21.76,-0.11,0.16,0.97,0.99,0.96
6:9:35:19:168030,-31.64,-30.07,-5.87,-0.12,0.2,1.29,1.31,1.1
6:9:35:19:168094,-37.15,-27.83,4.34,-0.08,0.3,1.4,1.43,1.35
6:9:35:19:168238,-44.1,-29.47,13.48,-0.04,0.28,1.44,1.47,1.44
6:9:35:19:168302,-46.58,-34.23,23.78,-0.14,0.27,1.5,1.53,1.49
6:9:35:19:168414,-53.35,-36.75,35.02,-0.12,0.18,1.49,1.5,1.52
6:9:35:19:168494,-62.1,-29.96,49.61,-0.1,0.23,1.37,1.39,1.47
6:9:35:20:169005,-69.94,-3.31,100.68,-0.07,0.16,0.9,0.92,1.23
6:9:35:20:169101,-69.45,4.75,113.94,-0.14,0.16,0.87,0.9,0.91
6:9:35:20:169196,-62.32,8.02,124.45,-0.17,0.13,0.98,1.0,0.93
6:9:35:20:169324,-60.93,11.75,131.55,-0.16,0.07,1.11,1.13,1.05
6:9:35:20:169421,-59.23,19.13,142.62,-0.13,0.04,1.1,1.1,1.12
6:9:35:20:169499,-46.05,26.91,161.05,-0.19,0.19,1.1,1.14,1.12
6:9:35:21:170010,-11.25,21.08,-143.84,-0.16,0.24,1.36,1.39,1.22
6:9:35:21:170121,2.52,23.91,-122.48,-0.07,0.33,1.27,1.31,1.37
6:9:35:21:170200,6.83,19.04,-108.96,-0.03,0.34,1.33,1.38,1.33
6:9:35:21:170297,8.14,9.88,-106.58,-0.05,0.27,1.32,1.35,1.37
6:9:35:21:170441,10.43,1.16,-105.42,-0.06,0.23,1.27,1.29,1.33
6:9:35:22:170521,10.49,-5.69,-95.61,-0.1,0.2,1.22,1.24,1.28
6:9:35:22:170602,8.22,-11.13,-78.19,-0.11,0.19,1.09,1.11,1.2
6:9:35:22:171006,0.29,-32.91,-50.2,-0.05,0.11,0.9,0.91,1.05
6:9:35:22:171102,3.0,-35.93,-48.07,0.03,0.28,0.91,0.95,0.92
6:9:35:22:171212,0.52,-36.44,-40.63,0.06,0.3,1.01,1.06,0.99
6:9:35:22:171294,-5.04,-39.01,-29.41,0.07,0.31,1.01,1.06,1.06
6:9:35:22:171422,-12.29,-42.31,-18.69,0.02,0.46,1.18,1.27,1.13
6:9:35:22:171500,-18.75,-45.71,-11.28,0.06,0.33,1.25,1.3,1.28
6:9:35:23:171667,-28.98,-48.53,0.84,0.04,0.37,1.36,1.41,1.34
6:9:35:23:171999,-71.06,-29.57,67.66,0.0,0.35,1.44,1.48,1.43
6:9:35:23:172113,-77.72,-39.29,79.88,-0.15,0.16,1.43,1.45,1.47
6:9:35:23:172208,-84.66,-31.06,91.15,-0.15,0.1,1.35,1.36,1.42
6:9:35:23:172290,-87.46,-8.61,98.39,-0.15,0.17,1.21,1.23,1.32
6:9:35:23:172433,-89.32,9.41,105.97,-0.15,0.22,1.11,1.14,1.2
6:9:35:24:172523,-91.16,13.42,115.81,-0.11,0.19,1.02,1.05,1.11
6:9:35:24:172617,-82.01,9.24,129.38,-0.09,0.09,1.0,1.0,1.03
6:9:35:24:173024,-19.65,32.97,-156.35,-0.18,0.21,1.04,1.08,1.03
6:9:35:24:173103,-12.22,31.01,-142.05,-0.11,0.16,1.03,1.05,1.07
6:9:35:24:173217,-6.73,24.4,-135.79,-0.13,0.23,1.17,1.2,1.1
6:9:35:24:173297,-1.11,18.36,-131.5,-0.06,0.23,1.21,1.23,1.21
6:9:35:24:173393,5.04,12.53,-123.43,-0.1,0.2,1.31,1.32,1.26
6:9:35:24:173488,12.18,7.72,-111.09,-0.11,0.25,1.33,1.36,1.34
6:9:35:25:174018,9.14,-34.3,-68.97,-0.13,0.11,1.29,1.3,1.34
6:9:35:25:174129,-4.36,-41.35,-50.46,-0.06,0.31,1.24,1.28,1.29
6:9:35:25:174193,-19.51,-45.94,-34.14,-0.02,0.22,1.16,1.19,1.25
6:9:35:25:174339,-33.43,-49.53,-19.2,-0.06,0.28,1.13,1.17,1.18
6:9:35:25:174404,-49.71,-49.13,0.38,-0.06,0.1,1.1,1.1,1.15
6:9:35:25:174499,-61.19,-42.91,19.3,-0.09,0.27,1.07,1.1,1.1
6:9:35:26:175005,-69.75,-19.05,64.12,-0.03,0.23,1.22,1.24,1.15
6:9:35:26:175101,-73.68,-10.34,72.36,-0.05,0.24,1.33,1.35,1.28
6:9:35:26:175229,-75.34,-0.18,81.79,-0.01,0.3,1.29,1.32,1.34
6:9:35:26:175309,-76.87,2.92,94.66,-0.01,0.37,1.38,1.43,1.36
6:9:35:26:175405,-77.01,-2.04,106.13,0.03,0.3,1.38,1.41,1.43
6:9:35:27:175516,-76.18,-4.39,116.86,-0.08,0.22,1.45,1.47,1.43
6:9:35:27:175996,-56.02,27.37,178.01,-0.08,0.17,1.27,1.28,1.41
6:9:35:27:176109,-45.34,34.2,-168.09,-0.11,0.18,1.15,1.17,1.25
6:9:35:27:176219,-32.95,39.23,-149.62,-0.12,0.16,1.18,1.2,1.18
6:9:35:27:176317,-20.23,40.44,-132.12,-0.1,0.18,1.12,1.14,1.18
6:9:35:27:176429,-10.17,37.59,-120.8,-0.09,0.16,1.04,1.06,1.11
6:9:35:28:176525,-1.7,33.61,-112.78,-0.11,0.12,1.06,1.08,1.07
6:9:35:28:177027,34.0,5.28,-74.76,-0.07,0.16,1.15,1.16,1.11
6:9:35:28:177124,40.39,-3.35,-71.95,-0.07,0.22,1.15,1.18,1.17
6:9:35:28:177220,45.4,-9.6,-71.81,-0.09,0.24,1.22,1.25,1.2
6:9:35:28:177299,47.51,-14.0,-69.96,-0.08,0.18,1.2,1.21,1.24
6:9:35:28:177411,47.71,-22.3,-65.83,-0.1,0.2,1.23,1.25,1.23
6:9:35:28:177507,45.78,-31.56,-61.24,-0.11,0.23,1.25,1.27,1.26
6:9:35:29:178024,7.91,-75.56,-34.34,-0.1,0.21,1.15,1.18,1.24
6:9:35:29:178106,-51.82,-78.12,24.96,-0.1,0.2,1.12,1.14,1.16
6:9:35:29:178199,-87.24,-74.31,60.84,-0.1,0.15,1.09,1.11,1.13
6:9:35:29:178311,-90.51,-67.73,66.75,-0.08,0.12,1.01,1.02,1.08
6:9:35:29:178407,-77.76,-56.48,59.69,-0.09,0.14,0.96,0.98,1.0
6:9:35:29:178501,-65.8,-46.61,57.39,-0.1,0.11,0.94,0.95,0.97
6:9:35:30:179023,-61.3,-28.37,86.38,-0.09,0.17,1.17,1.19,1.03
6:9:35:30:179118,-64.92,-25.21,96.6,-0.09,0.22,1.23,1.25,1.21
6:9:35:30:179198,-68.04,-24.23,105.47,-0.14,0.27,1.48,1.51,1.34
6:9:35:30:179309,-70.11,-23.89,114.82,-0.15,0.22,1.38,1.41,1.47
6:9:35:30:179422,-71.68,-23.2,123.12,-0.18,0.13,1.44,1.45,1.42
6:9:35:31:179517,-72.56,-18.27,131.0,-0.18,0.18,1.35,1.38,1.43
6:9:35:31:180008,-62.78,-5.39,156.04,-0.19,0.18,1.01,1.04,1.27
6:9:35:31:180135,-54.13,-2.41,157.62,-0.15,0.07,1.0,1.01,1.03
6:9:35:31:180215,-45.86,-0.45,159.84,-0.19,0.08,1.0,1.02,1.02
6:9:35:31:180311,-44.29,0.93,160.83,-0.17,0.1,1.07,1.09,1.05
6:9:35:31:180408,-46.43,2.32,160.3,-0.21,0.02,1.08,1.1,1.09
6:9:35:31:180503,-42.39,0.8,158.75,-0.18,0.01,1.0,1.02,1.07
6:9:35:32:181009,-20.72,-2.76,172.09,-0.14,0.15,0.86,0.88,0.97
6:9:35:32:181106,-22.52,-2.91,172.54,-0.1,0.15,0.84,0.86,0.88
6:9:35:32:181218,-25.29,-3.3,171.92,-0.1,0.13,0.86,0.88,0.87
6:9:35:32:181329,-30.02,-1.08,173.49,-0.1,0.11,0.86,0.87,0.87
6:9:35:32:181410,-34.22,2.33,177.75,-0.11,0.13,0.89,0.91,0.88
6:9:35:33:181522,-37.11,5.54,-178.57,-0.1,0.15,0.9,0.92,0.91
6:9:35:33:182029,-47.05,1.98,-168.28,-0.1,0.15,0.85,0.87,0.9
6:9:35:33:182124,-50.8,3.68,-165.0,-0.07,0.16,0.88,0.89,0.88
6:9:35:33:182221,-52.57,4.25,-163.13,-0.11,0.2,0.92,0.95,0.91
6:9:35:33:182302,-45.23,5.17,-164.22,-0.07,0.11,0.97,0.98,0.96
6:9:35:33:182414,-35.82,7.56,-157.85,-0.12,0.14,1.0,1.02,0.99
6:9:35:34:182557,-33.27,10.69,-151.35,-0.08,0.19,1.1,1.12,1.05
6:9:35:34:182995,-23.2,-5.31,-144.43,-0.17,0.27,1.11,1.16,1.14
6:9:35:34:183123,-23.31,-0.92,-143.01,-0.09,0.12,1.13,1.14,1.15
6:9:35:34:183203,-21.53,1.71,-136.67,-0.09,0.11,1.04,1.05,1.11
6:9:35:34:183300,-16.81,0.27,-132.72,-0.14,0.2,1.01,1.04,1.05
6:9:35:34:183411,-16.43,-0.84,-138.39,-0.13,0.12,1.03,1.05,1.04
6:9:35:34:183507,-11.28,-6.33,-146.99,-0.17,0.04,0.98,0.99,1.03
6:9:35:35:184011,-10.35,-6.83,-153.76,-0.06,0.15,0.82,0.83,0.94
6:9:35:35:184092,-10.3,-9.5,-157.97,-0.05,0.14,0.81,0.82,0.83
6:9:35:35:184204,-11.39,-10.11,-158.06,-0.05,0.14,0.76,0.78,0.81
6:9:35:35:184300,-13.5,-8.47,-158.33,-0.11,0.14,0.79,0.81,0.79
6:9:35:35:184395,-15.04,-4.73,-157.99,-0.09,0.14,0.81,0.82,0.81
6:9:35:35:184508,-20.17,-1.25,-156.3,-0.07,0.12,0.84,0.85,0.83
6:9:35:36:185008,-23.04,0.44,-156.97,-0.11,-0.03,0.77,0.78,0.82
6:9:35:36:185119,-22.88,2.82,-156.54,-0.46,-0.0,1.21,1.3,0.95
6:9:35:36:185200,-32.14,11.09,-164.73,-0.17,-0.11,1.03,1.05,1.22
6:9:35:36:185312,-27.36,-6.41,-176.14,-0.26,0.04,1.17,1.2,1.1
6:9:35:36:185408,-27.91,-18.16,-179.54,-0.34,0.01,1.35,1.39,1.26
6:9:35:37:185568,-24.61,-12.85,-179.11,-0.14,0.0,1.35,1.36,1.38
6:9:35:37:186077,-16.62,-25.76,-165.6,-0.18,0.02,1.06,1.08,1.27
6:9:35:37:186127,-13.98,-21.35,-164.57,-0.14,0.13,0.99,1.01,1.06
6:9:35:37:186239,-13.83,-20.21,-164.29,-0.17,0.15,1.07,1.09,1.04
6:9:35:37:186319,-17.07,-19.7,-165.06,-0.16,0.14,1.07,1.09,1.09
6:9:35:37:186399,-16.92,-16.85,-168.86,-0.05,0.14,0.97,0.98,1.06
6:9:35:38:186559,-14.39,-18.0,-169.67,-0.09,0.15,0.96,0.97,0.98
6:9:35:38:187018,-10.75,-8.93,-158.39,-0.09,0.1,1.11,1.12,1.02
6:9:35:38:187116,-13.81,-7.11,-159.8,-0.1,0.03,1.05,1.06,1.1
6:9:35:38:187242,-10.28,-9.01,-153.47,-0.15,0.11,1.05,1.06,1.06
6:9:35:38:187290,-6.91,-10.97,-147.1,-0.14,0.17,1.06,1.08,1.07
6:9:35:38:187403,-5.1,-12.4,-146.43,-0.18,0.12,1.09,1.11,1.09
6:9:35:39:187516,-5.38,-10.61,-149.85,-0.22,0.04,1.11,1.13,1.12
6:9:35:39:188006,2.61,-9.65,-141.82,-0.09,0.16,0.93,0.94,1.07
6:9:35:39:188118,1.25,-7.53,-138.42,-0.09,0.09,0.92,0.93,0.94
6:9:35:39:188212,-0.95,-5.43,-134.47,-0.1,0.13,0.88,0.89,0.92
6:9:35:39:188309,-2.4,-2.77,-129.15,-0.06,0.15,0.83,0.85,0.88
6:9:35:39:188420,-3.01,-0.97,-125.21,-0.05,0.14,0.81,0.83,0.84
6:9:35:39:188501,-2.98,-1.23,-127.73,-0.08,0.17,0.88,0.9,0.85
6:9:35:40:188625,-2.37,-2.35,-134.02,-0.06,0.16,0.85,0.86,0.89
6:9:35:40:189018,0.97,5.31,-118.68,-0.12,0.19,0.92,0.94,0.89
6:9:35:40:189115,-1.38,5.44,-124.44,-0.08,0.12,0.94,0.95,0.95
6:9:35:40:189210,0.4,1.42,-132.54,-0.08,0.11,0.95,0.95,0.95
6:9:35:40:189305,2.38,-0.35,-136.05,-0.13,0.11,1.08,1.09,1.0
6:9:35:40:189404,4.04,1.66,-135.45,-0.1,0.12,1.08,1.09,1.09
6:9:35:41:189531,5.87,0.33,-136.26,-0.14,0.14,1.18,1.19,1.13
6:9:35:41:190005,18.61,-13.74,-145.33,-0.11,0.14,1.14,1.15,1.18
6:9:35:41:190118,18.24,-14.26,-146.34,-0.08,0.14,1.02,1.04,1.11
6:9:35:41:190197,16.21,-15.06,-144.4,-0.08,0.17,0.94,0.96,1.01
6:9:35:41:190308,14.9,-15.65,-143.5,-0.07,0.17,0.87,0.89,0.93
6:9:35:41:190434,14.47,-15.36,-145.73,-0.08,0.14,0.8,0.81,0.86
6:9:35:42:190515,13.55,-15.37,-148.58,-0.09,0.1,0.8,0.81,0.81
6:9:35:42:190636,11.98,-15.63,-147.61,-0.09,0.13,0.79,0.8,0.81
6:9:35:42:190990,-2.63,1.49,-137.98,-0.1,0.12,0.84,0.85,0.82
6:9:35:42:191134,-4.95,4.92,-138.86,-0.08,0.09,0.82,0.83,0.84
6:9:35:42:191199,-4.86,5.53,-138.57,-0.08,0.12,0.84,0.85,0.84
6:9:35:42:191326,-3.78,4.76,-138.67,-0.1,0.11,0.82,0.83,0.85
6:9:35:42:191404,-2.95,4.53,-139.36,-0.08,0.14,0.83,0.84,0.84
6:9:35:43:191518,-3.81,7.34,-138.7,-0.06,0.15,0.87,0.88,0.85
6:9:35:43:191993,5.75,8.23,-129.4,0.01,0.25,0.95,0.98,0.92
6:9:35:43:192104,8.81,7.14,-126.14,0.04,0.3,0.98,1.02,1.0
6:9:35:43:192201,10.4,4.91,-126.09,0.01,0.33,1.02,1.07,1.04
6:9:35:43:192298,11.61,5.19,-130.32,0.1,0.31,0.99,1.04,1.06
6:9:35:43:192393,12.47,4.67,-132.6,0.1,0.33,1.06,1.11,1.06
6:9:35:43:192504,14.07,2.06,-131.13,0.03,0.34,1.12,1.18,1.13
6:9:35:44:193011,15.09,-9.97,-112.89,0.01,0.3,1.16,1.2,1.18
6:9:35:44:193107,15.68,-12.24,-121.24,-0.01,0.16,1.11,1.12,1.17
6:9:35:44:193203,15.36,-15.72,-123.35,-0.04,0.24,1.05,1.08,1.1
6:9:35:44:193314,11.6,-15.8,-119.22,-0.05,0.15,1.01,1.02,1.06
6:9:35:44:193411,9.29,-14.81,-112.59,-0.08,0.15,0.94,0.96,1.0
6:9:35:44:193508,7.35,-14.9,-110.67,-0.11,0.09,0.89,0.9,0.94
6:9:35:45:194018,0.08,-10.42,-101.44,-0.1,0.12,0.83,0.85,0.88
6:9:35:45:194131,1.09,-9.45,-103.83,-0.08,0.13,0.84,0.85,0.85
6:9:35:45:194211,3.23,-8.17,-108.44,-0.09,0.11,0.87,0.88,0.86
6:9:35:45:194306,5.48,-5.41,-111.41,-0.11,0.1,0.89,0.9,0.89
6:9:35:45:194418,7.59,-2.06,-112.03,-0.1,0.1,0.87,0.88,0.89
6:9:35:46:194515,8.88,0.08,-111.33,-0.09,0.14,0.86,0.88,0.88
6:9:35:46:195003,13.34,5.26,-115.05,-0.07,0.19,0.98,1.0,0.92
6:9:35:46:195115,10.95,4.63,-120.03,-0.01,0.15,1.01,1.02,1.01
6:9:35:46:195217,11.57,1.1,-122.49,-0.04,0.17,1.01,1.02,1.02
6:9:35:46:195327,14.26,-0.34,-121.95,-0.05,0.21,1.16,1.19,1.08
6:9:35:46:195406,14.94,-3.17,-118.27,-0.05,0.19,1.19,1.21,1.19
6:9:35:46:195505,15.99,-7.47,-113.06,-0.07,0.22,1.2,1.22,1.21
6:9:35:47:196059,20.32,-19.76,-126.92,-0.12,0.22,1.13,1.16,1.2
6:9:35:47:196091,18.68,-21.73,-126.35,-0.1,0.18,1.09,1.11,1.14
6:9:35:47:196219,16.36,-21.95,-124.75,-0.06,0.1,0.96,0.97,1.07
6:9:35:47:196299,14.61,-23.28,-122.72,-0.09,0.11,0.95,0.96,0.97
6:9:35:47:196411,13.82,-25.54,-122.17,-0.11,0.15,0.93,0.95,0.96
6:9:35:47:196507,11.54,-25.98,-119.39,-0.09,0.12,0.9,0.91,0.94
6:9:35:48:197004,-6.56,-22.47,-102.65,-0.14,0.07,0.87,0.88,0.9
6:9:35:48:197133,-9.76,-16.63,-98.37,-0.12,0.05,0.9,0.91,0.89
6:9:35:48:197214,-12.71,-8.16,-88.41,-0.12,0.04,0.9,0.91,0.91
6:9:35:48:197310,-9.48,-3.19,-81.03,-0.14,0.13,0.9,0.92,0.91
6:9:35:48:197406,-7.08,-4.38,-83.01,-0.12,0.12,0.94,0.95,0.93
6:9:35:48:197502,0.32,-9.22,-92.25,-0.09,0.17,0.99,1.01,0.97
6:9:35:49:198020,6.79,3.14,-87.1,0.06,0.33,0.94,0.99,1.01
6:9:35:49:198117,8.35,3.94,-89.32,0.01,0.22,1.0,1.02,1.0
6:9:35:49:198213,9.39,6.3,-89.7,0.02,0.25,1.05,1.08,1.04
6:9:35:49:198309,9.38,5.75,-84.68,0.0,0.27,1.1,1.13,1.1
6:9:35:49:198405,11.51,2.38,-82.18,0.01,0.24,1.09,1.11,1.13
6:9:35:50:198515,15.58,-1.43,-88.37,-0.04,0.26,1.17,1.2,1.14
6:9:35:50:199034,20.02,-9.67,-102.74,-0.1,0.14,1.11,1.12,1.17
6:9:35:50:199114,20.02,-7.61,-109.28,-0.05,0.1,1.01,1.01,1.09
6:9:35:50:199209,19.38,-10.02,-108.91,-0.08,0.14,1.01,1.02,1.02
6:9:35:50:199303,20.63,-12.33,-107.48,-0.11,0.18,0.97,0.99,1.01
6:9:35:50:199405,20.01,-10.18,-108.86,-0.06,0.16,0.93,0.95,0.98
6:9:35:51:199517,16.59,-9.24,-111.74,-0.1,0.11,0.92,0.93,0.94
6:9:35:51:200031,3.98,-7.59,-110.49,-0.08,0.14,0.94,0.95,0.94
6:9:35:51:200111,2.81,-9.57,-110.11,-0.11,0.13,0.94,0.96,0.95
6:9:35:51:200206,0.38,-9.27,-109.73,-0.08,0.13,0.91,0.92,0.94
6:9:35:51:200301,-1.81,-9.77,-109.72,-0.11,0.08,0.93,0.94,0.93
6:9:35:51:200462,-3.63,-9.98,-108.43,-0.08,0.1,0.88,0.89,0.92
6:9:35:52:200540,-5.3,-9.85,-105.15,-0.11,0.12,0.9,0.91,0.9
6:9:35:52:200989,-9.45,-1.64,-96.06,-0.08,0.06,0.88,0.88,0.9
6:9:35:52:201118,-7.58,-1.36,-93.96,-0.11,0.12,0.85,0.87,0.88
6:9:35:52:201198,-6.53,2.34,-92.64,-0.03,0.16,0.85,0.86,0.87
6:9:35:52:201341,-4.87,4.91,-90.27,-0.01,0.19,0.86,0.88,0.87
6:9:35:52:201405,-3.51,5.38,-87.25,-0.04,0.22,0.88,0.91,0.89
6:9:35:52:201501,-1.64,6.19,-86.53,0.01,0.26,0.93,0.96,0.93
6:9:35:53:201999,0.6,1.56,-82.07,0.05,0.14,1.23,1.24,1.06
6:9:35:53:202118,1.29,-1.19,-72.44,-0.0,0.23,1.18,1.2,1.23
6:9:35:53:202239,5.53,-9.87,-66.32,-0.11,0.33,1.31,1.35,1.25
6:9:35:53:202336,6.37,-12.24,-73.69,-0.06,0.27,1.22,1.25,1.32
6:9:35:53:202431,4.65,-15.11,-81.37,-0.01,0.1,1.2,1.21,1.23
6:9:35:54:202528,7.8,-20.72,-79.11,-0.13,0.18,1.22,1.24,1.22
6:9:35:54:203028,14.98,-28.1,-90.21,-0.08,0.06,0.99,0.99,1.16
6:9:35:54:203124,10.01,-26.79,-81.63,-0.17,0.1,0.98,1.0,0.99
6:9:35:54:203220,6.64,-26.4,-75.03,-0.13,0.12,0.89,0.9,0.97
6:9:35:54:203299,4.48,-27.65,-73.92,-0.12,0.08,0.86,0.87,0.89
6:9:35:54:203396,2.82,-29.51,-75.3,-0.12,0.07,0.85,0.86,0.87
6:9:35:55:203522,-0.19,-29.25,-72.99,-0.12,0.05,0.83,0.84,0.85
6:9:35:55:203968,-14.1,-24.33,-56.58,-0.13,0.09,0.9,0.91,0.86
6:9:35:55:204029,-15.24,-24.02,-55.48,-0.11,0.12,0.86,0.87,0.9
6:9:35:55:204126,-14.77,-26.54,-54.51,-0.12,0.11,0.9,0.91,0.88
6:9:35:55:204222,-10.47,-29.53,-58.04,-0.06,0.19,0.89,0.91,0.91
6:9:35:55:204317,-8.75,-27.78,-60.12,-0.0,0.24,0.91,0.94,0.92
6:9:35:55:204478,-11.65,-24.98,-57.13,0.04,0.27,0.86,0.9,0.93
6:9:35:55:204510,-12.29,-21.15,-52.91,0.03,0.28,0.9,0.94,0.91
6:9:35:56:204937,5.05,-24.32,-68.78,0.01,0.27,0.89,0.93,0.94
6:9:35:56:205021,6.6,-23.69,-76.89,0.01,0.17,0.95,0.96,0.94
6:9:35:56:205101,4.81,-20.25,-81.76,-0.01,0.18,0.98,1.0,0.97
6:9:35:56:205245,4.3,-17.25,-81.81,-0.03,0.12,1.01,1.01,1.01
6:9:35:56:205468,3.69,-16.78,-80.18,-0.04,0.23,1.1,1.12,1.05
6:9:35:56:205484,1.54,-19.61,-84.29,-0.07,0.28,1.22,1.25,1.17
6:9:35:56:205500,2.53,-22.76,-95.22,-0.01,0.2,1.19,1.2,1.24
6:9:35:57:206009,13.9,-49.9,-105.78,-0.12,0.19,1.05,1.07,1.16
6:9:35:57:206121,14.97,-52.0,-108.32,-0.17,0.19,1.11,1.14,1.1
6:9:35:57:206215,12.7,-48.55,-112.95,-0.08,0.08,1.04,1.05,1.11
6:9:35:57:206329,18.11,-45.45,-120.67,-0.11,0.14,1.08,1.1,1.06
6:9:35:57:206425,24.48,-41.64,-128.46,-0.13,0.06,1.01,1.02,1.07
6:9:35:58:206521,23.52,-35.84,-129.93,-0.14,0.07,1.01,1.02,1.02
6:9:35:58:207000,22.57,-25.47,-139.98,-0.11,0.12,0.93,0.94,1.0
6:9:35:58:207042,25.34,-24.64,-145.11,-0.1,0.13,0.91,0.92,0.94
6:9:35:58:207127,23.66,-21.75,-146.93,-0.09,0.13,0.87,0.89,0.91
6:9:35:58:207239,19.02,-19.63,-145.06,-0.08,0.12,0.83,0.84,0.87
6:9:35:58:207319,16.34,-18.89,-143.52,-0.06,0.13,0.82,0.84,0.84
6:9:35:58:207431,15.11,-18.69,-143.36,-0.09,0.16,0.84,0.86,0.84
6:9:35:58:207511,11.98,-16.01,-144.3,-0.1,0.12,0.83,0.84,0.86
6:9:35:59:208159,6.53,-19.61,-149.09,-0.1,0.09,0.78,0.79,0.82
6:9:35:59:208191,2.69,-19.2,-147.54,-0.1,0.06,0.79,0.79,0.79
6:9:35:59:208271,-0.91,-18.48,-140.54,-0.13,0.1,0.83,0.85,0.81
6:9:35:59:208444,-4.25,-16.81,-135.21,-0.1,0.11,0.82,0.83,0.84
6:9:35:59:208445,-5.7,-16.97,-134.35,-0.07,0.12,0.8,0.81,0.83
6:9:35:59:208446,-4.81,-19.59,-135.11,-0.15,0.14,0.91,0.93,0.85
6:9:35:59:208509,-4.38,-17.0,-136.62,-0.13,0.08,1.03,1.04,0.97
6:9:36:0:208931,10.74,-32.98,-136.43,-0.24,0.18,1.49,1.52,1.2
6:9:36:0:209007,16.38,-33.68,-141.87,-0.13,0.09,1.43,1.44,1.49
6:9:36:0:209102,23.79,-37.43,-145.22,-0.19,0.14,1.3,1.32,1.4
6:9:36:0:209310,27.64,-38.39,-148.29,-0.17,0.15,1.25,1.27,1.31
6:9:36:0:209486,32.27,-37.16,-153.41,-0.14,0.09,1.12,1.13,1.22
6:9:36:1:209545,36.97,-36.3,-157.8,-0.17,0.08,1.01,1.03,1.1
6:9:36:1:209547,33.7,-30.82,-158.27,-0.17,0.07,0.95,0.97,1.01
6:9:36:1:209942,33.25,-18.32,-172.84,-0.09,0.15,0.79,0.81,0.91
6:9:36:1:210134,31.55,-17.03,-174.42,-0.08,0.18,0.84,0.86,0.82
6:9:36:1:210170,29.67,-13.66,-176.11,-0.05,0.17,0.83,0.85,0.86
6:9:36:1:210202,27.49,-9.39,179.37,-0.05,0.15,0.87,0.88,0.86
6:9:36:1:210377,25.72,-6.22,174.92,-0.04,0.14,0.89,0.9,0.89
6:9:36:1:210410,24.11,-4.64,174.32,-0.04,0.16,0.92,0.93,0.91
6:9:36:2:210666,22.35,-6.19,177.71,-0.07,0.21,0.98,1.01,0.96
6:9:36:2:210962,10.68,-9.37,179.63,-0.23,-0.03,0.88,0.91,0.97
6:9:36:2:210997,9.15,-11.41,-173.71,-0.2,-0.08,0.84,0.87,0.9
6:9:36:2:211234,8.48,-13.33,-164.3,-0.22,-0.01,0.82,0.85,0.86
6:9:36:2:211236,8.38,-14.28,-158.42,-0.24,0.03,0.83,0.87,0.86
6:9:36:2:211316,6.75,-12.04,-155.61,-0.26,0.02,0.86,0.9,0.88
6:9:36:2:211428,2.73,-7.72,-154.14,-0.18,-0.03,0.87,0.89,0.9
6:9:36:2:211508,1.14,-8.01,-152.4,-0.19,-0.04,0.95,0.97,0.92
6:9:36:3:211972,7.51,-10.43,-135.1,-0.18,0.13,1.19,1.21,1.05
6:9:36:3:212008,11.53,-15.03,-127.07,-0.15,0.28,1.24,1.28,1.24
6:9:36:3:212152,10.78,-13.71,-128.4,-0.07,0.15,1.25,1.26,1.27
6:9:36:3:212216,13.91,-17.52,-130.96,-0.1,0.16,1.25,1.26,1.26
6:9:36:3:212313,19.28,-22.2,-131.7,-0.13,0.16,1.23,1.24,1.25
6:9:36:3:212458,20.41,-24.74,-129.48,-0.14,0.15,1.18,1.2,1.23
6:9:36:3:212504,18.82,-25.86,-127.1,-0.12,0.13,1.08,1.1,1.17
6:9:36:4:212935,17.22,-20.63,-135.14,-0.09,0.11,0.98,0.99,1.06
6:9:36:4:213352,15.93,-20.04,-132.71,-0.1,0.11,0.89,0.9,0.96
6:9:36:4:213443,17.55,-21.07,-130.25,-0.12,0.1,0.84,0.86,0.88
6:9:36:4:213446,18.01,-22.16,-127.82,-0.11,0.09,0.86,0.87,0.86
6:9:36:4:213448,18.0,-21.95,-127.32,-0.16,0.14,0.84,0.87,0.87
6:9:36:4:213477,14.92,-16.57,-131.55,-0.12,0.05,0.83,0.84,0.86
6:9:36:5:213541,13.48,-12.42,-136.45,-0.1,0.05,0.77,0.78,0.82
6:9:36:5:214023,7.09,-5.93,-131.31,-0.1,0.12,0.75,0.77,0.78
6:9:36:5:214027,4.2,-3.88,-132.57,-0.02,0.06,0.61,0.61,0.72
6:9:36:5:214169,7.99,-5.94,-132.76,-0.07,0.1,0.67,0.68,0.63
6:9:36:5:214234,11.6,-6.85,-132.04,-0.12,0.12,0.65,0.68,0.68
6:9:36:5:214297,8.05,-3.98,-129.91,-0.1,0.08,0.69,0.7,0.68
6:9:36:5:214410,2.7,-1.27,-126.94,-0.1,0.13,0.82,0.84,0.75
6:9:36:6:214522,-1.84,1.81,-126.67,-0.07,0.17,0.92,0.94,0.87
6:9:36:6:214964,6.25,-5.33,-122.5,-0.1,0.24,1.43,1.45,1.11
6:9:36:6:215011,9.48,-10.05,-119.64,-0.13,0.2,1.47,1.49,1.46
6:9:36:6:215139,13.26,-13.65,-122.94,-0.21,0.22,1.5,1.53,1.5
6:9:36:6:215202,18.5,-15.6,-134.7,-0.16,0.11,1.42,1.43,1.5
6:9:36:6:215362,27.86,-21.19,-147.27,-0.24,0.11,1.4,1.42,1.43
6:9:36:6:215459,29.33,-19.77,-148.84,-0.16,0.12,1.32,1.34,1.4
6:9:36:7:215586,30.16,-20.98,-147.24,-0.17,0.1,1.12,1.14,1.27
6:9:36:7:215982,24.72,-13.03,-164.48,-0.08,0.1,0.93,0.94,1.07
6:9:36:7:215996,25.06,-15.41,-162.51,-0.12,0.15,0.92,0.94,0.94
6:9:36:7:216127,21.95,-12.98,-160.72,-0.08,0.18,0.93,0.95,0.94
6:9:36:7:216285,20.02,-9.75,-162.67,-0.04,0.01,0.94,0.94,0.94
6:9:36:7:216309,19.2,-7.87,-168.28,-0.06,0.12,0.94,0.95,0.94
6:9:36:7:216506,17.23,-5.53,-172.48,-0.07,0.08,0.95,0.95,0.95
6:9:36:7:216508,15.37,-2.86,-172.1,-0.03,0.14,0.97,0.98,0.96
6:9:36:8:216973,16.9,-1.1,-178.09,-0.08,0.17,1.0,1.02,0.99
6:9:36:8:217061,18.45,-1.58,-175.28,-0.07,0.16,1.01,1.03,1.02
6:9:36:8:217092,17.63,0.35,-173.25,-0.1,0.11,0.98,0.99,1.02
6:9:36:8:217220,13.79,-0.96,-172.13,-0.12,0.07,0.98,0.99,0.99
6:9:36:8:217317,11.37,-3.57,-171.01,-0.12,0.15,1.01,1.03,1.0
6:9:36:8:217414,9.14,-4.23,-168.64,-0.15,0.1,0.96,0.98,1.01
6:9:36:9:217525,9.51,-3.82,-169.15,-0.06,0.09,0.88,0.89,0.95
6:9:36:9:217916,13.65,-20.31,-155.41,-0.18,-0.02,0.79,0.81,0.87
6:9:36:9:218009,11.79,-26.23,-146.93,-0.23,-0.04,0.73,0.77,0.8
6:9:36:9:218199,8.2,-28.54,-137.59,-0.22,-0.01,0.74,0.78,0.77
6:9:36:9:218215,6.11,-26.26,-131.63,-0.33,0.07,0.95,1.01,0.85
6:9:36:9:218312,-2.46,-13.67,-128.33,-0.13,-0.05,0.98,0.99,1.01
6:9:36:9:218422,-1.27,-12.72,-131.21,-0.05,0.3,1.19,1.23,1.07
6:9:36:10:218519,0.1,-22.69,-139.19,-0.13,0.1,1.39,1.4,1.28
6:9:36:10:218929,14.81,-46.55,-116.47,-0.09,0.2,1.35,1.37,1.39
6:9:36:10:219059,24.21,-52.29,-123.02,-0.21,0.16,1.24,1.26,1.34
6:9:36:10:219108,9.72,-48.73,-110.07,-0.13,0.07,1.15,1.16,1.23
6:9:36:10:219251,1.58,-44.72,-97.75,-0.12,0.1,0.97,0.98,1.1
6:9:36:10:219316,4.0,-42.66,-98.9,-0.15,0.14,0.94,0.97,0.98
6:9:36:10:219428,12.47,-36.27,-112.27,-0.13,0.07,0.96,0.97,0.97
6:9:36:10:219508,17.1,-28.35,-120.34,-0.16,0.08,0.98,0.99,0.98
6:9:36:11:219964,12.25,-10.67,-115.67,-0.15,0.1,0.93,0.95,0.98
6:9:36:11:220026,12.3,-4.75,-123.68,-0.1,0.04,0.93,0.94,0.95
6:9:36:11:220123,9.82,-3.5,-124.0,-0.16,0.06,0.97,0.99,0.96
6:9:36:11:220218,6.89,0.94,-119.77,-0.15,0.04,0.92,0.94,0.97
6:9:36:11:220314,6.8,4.85,-118.28,-0.18,0.07,0.88,0.9,0.93
6:9:36:11:220474,3.86,6.55,-124.14,-0.14,0.09,0.84,0.86,0.89
6:9:36:12:220522,-1.39,4.27,-134.73,-0.12,0.09,0.9,0.91,0.88
6:9:36:12:220907,-16.88,2.58,-134.86,-0.15,0.06,1.12,1.14,0.99
6:9:36:12:221066,-13.35,8.79,-125.25,-0.16,0.03,0.9,0.91,1.06
6:9:36:12:221098,-12.04,-1.0,-124.08,-0.3,0.15,1.03,1.09,0.97
6:9:36:12:221288,-13.67,-7.39,-136.48,-0.22,-0.04,1.03,1.06,1.08
6:9:36:12:221289,-13.94,-5.82,-142.73,-0.1,-0.05,0.91,0.92,1.01
6:9:36:12:221435,-12.67,-8.62,-135.38,-0.14,0.25,1.14,1.17,1.0
6:9:36:12:221499,-9.16,-12.04,-133.15,-0.1,0.15,1.27,1.28,1.21
6:9:36:13:222044,-43.13,41.28,-85.09,0.16,-0.13,-0.09,0.23,0.93
6:9:36:13:222337,-11.19,-15.69,-67.5,-0.65,1.11,1.57,2.03,0.83
6:9:36:13:222338,34.94,-31.14,-128.4,-0.45,0.12,0.7,0.84,1.63
6:9:36:13:222338,21.93,-19.0,-169.21,-0.4,-0.07,0.87,0.96,0.88
6:9:36:13:222339,0.71,-11.62,175.59,0.04,-0.13,1.12,1.13,1.02
6:9:36:13:222409,2.63,-6.05,-173.96,-0.09,0.16,1.07,1.08,1.11
6:9:36:14:222561,6.8,-1.02,-157.88,-0.11,0.36,0.95,1.02,1.06
6:9:36:14:222914,-20.06,-6.06,169.24,-0.18,-0.06,0.73,0.75,0.93
6:9:36:14:223009,-26.38,-10.35,167.84,-0.28,-0.07,0.86,0.91,0.8
6:9:36:14:223122,-25.22,-6.33,168.24,-0.39,-0.1,1.0,1.07,0.97
6:9:36:14:223218,-22.77,0.96,169.64,-0.3,-0.21,0.92,0.99,1.04
6:9:36:14:223299,-14.6,-2.9,168.7,-0.31,-0.23,0.71,0.81,0.93
6:9:36:14:223410,-12.8,-3.74,179.25,-0.35,-0.18,0.82,0.91,0.84
6:9:36:14:223507,-11.17,3.95,-165.11,-0.4,-0.19,1.0,1.09,0.97
6:9:36:15:223917,-2.18,-15.92,-163.0,-0.4,-0.12,1.12,1.2,1.13
6:9:36:15:224029,-2.13,-18.42,-175.39,-0.44,-0.15,1.26,1.34,1.24
6:9:36:15:224108,-6.37,-20.65,174.41,-0.4,-0.1,1.22,1.29,1.32
6:9:36:15:224205,-10.95,-20.17,168.31,-0.2,-0.1,1.32,1.34,1.3
6:9:36:15:224301,-17.33,-23.76,-179.25,-0.12,0.24,1.39,1.41,1.36
6:9:36:15:224397,-30.73,-15.95,-163.0,-0.07,0.35,1.1,1.15,1.33
6:9:36:15:224508,-38.32,-2.65,-166.52,0.02,0.09,0.99,0.99,1.1
6:9:36:16:224913,-50.56,-2.3,-171.09,-0.17,-0.04,0.82,0.84,0.94
6:9:36:16:225005,-47.16,12.32,-164.26,-0.2,-0.04,0.82,0.85,0.84
6:9:36:16:225102,-39.37,19.96,-154.08,-0.25,0.01,0.86,0.9,0.87
6:9:36:16:225213,-33.52,21.28,-151.31,-0.25,0.0,0.83,0.87,0.89
6:9:36:16:225310,-31.9,22.43,-155.85,-0.19,-0.04,0.7,0.73,0.83
6:9:36:16:225406,-31.47,21.4,-156.25,-0.15,-0.01,0.64,0.66,0.71
6:9:36:16:225502,-30.66,19.31,-153.1,-0.15,0.05,0.64,0.66,0.66
6:9:36:17:225920,-58.41,25.51,-169.81,0.02,0.07,0.87,0.88,0.73
6:9:36:17:226015,-47.42,21.62,-158.55,-0.07,0.19,1.04,1.06,0.94
6:9:36:17:226141,-46.09,24.21,-151.79,-0.13,0.24,1.15,1.18,1.1
6:9:36:17:226220,-52.53,31.05,-153.3,-0.06,0.11,1.22,1.23,1.2
6:9:36:17:226319,-53.44,27.16,-146.38,-0.12,0.12,1.21,1.22,1.23
6:9:36:17:226415,-50.17,18.97,-141.02,-0.09,0.12,1.33,1.34,1.26
6:9:36:18:226524,-42.98,17.07,-136.3,-0.13,0.17,1.28,1.3,1.33
6:9:36:18:226945,-41.06,13.03,-130.87,-0.16,0.06,1.06,1.08,1.22
6:9:36:18:227015,-36.7,13.04,-128.36,-0.2,0.1,1.09,1.11,1.09
6:9:36:18:227128,-36.05,12.33,-129.84,-0.22,0.03,1.03,1.06,1.09
6:9:36:18:227306,-31.49,8.58,-131.2,-0.17,0.03,1.01,1.03,1.05
6:9:36:18:227308,-25.95,6.0,-130.12,-0.16,0.05,0.97,0.99,1.01
6:9:36:18:227419,-19.37,6.53,-128.64,-0.15,0.1,0.96,0.98,0.98
6:9:36:19:227516,-18.49,8.45,-129.49,-0.14,0.06,0.92,0.93,0.96
6:9:36:19:227940,-18.37,18.32,-122.99,-0.12,0.14,0.89,0.91,0.92
6:9:36:19:228006,-21.28,20.28,-124.29,-0.11,0.13,0.89,0.91,0.91
6:9:36:19:228104,-27.1,21.36,-128.49,-0.07,0.09,0.86,0.87,0.89
6:9:36:19:228247,-28.99,22.01,-128.46,-0.07,0.1,0.88,0.89,0.87
6:9:36:19:228359,-27.14,24.9,-124.33,-0.09,0.12,0.87,0.89,0.89
6:9:36:19:228422,-24.98,26.98,-120.62,-0.09,0.13,0.88,0.89,0.89
6:9:36:20:228519,-23.97,27.48,-118.28,-0.08,0.13,0.83,0.84,0.87
6:9:36:20:229049,-28.38,28.38,-116.08,-0.07,0.06,0.88,0.88,0.86
6:9:36:20:229064,-22.18,25.61,-111.0,-0.14,0.12,0.95,0.97,0.91
6:9:36:20:229144,-17.3,21.05,-107.85,-0.15,0.1,1.1,1.11,1.02
6:9:36:20:229224,-15.84,20.5,-106.34,-0.13,0.11,1.08,1.09,1.11
6:9:36:20:229479,-15.4,20.15,-104.94,-0.14,0.13,1.16,1.18,1.12
6:9:36:20:229495,-14.56,18.94,-104.55,-0.15,0.13,1.27,1.29,1.22
6:9:36:21:229560,-11.83,15.8,-105.64,-0.15,0.14,1.34,1.36,1.31
6:9:36:21:230212,-4.16,1.08,-103.44,-0.11,0.09,1.1,1.11,1.27
6:9:36:21:230214,1.49,-0.32,-97.91,-0.12,0.15,0.95,0.96,1.06
6:9:36:21:230233,2.34,-3.69,-97.84,-0.22,0.19,0.99,1.04,0.99
6:9:36:21:230235,-4.15,-1.31,-106.49,-0.13,0.05,0.94,0.95,1.01
6:9:36:21:230347,-7.32,0.09,-112.42,-0.1,0.0,0.84,0.85,0.92
6:9:36:22:230577,-4.95,-0.04,-109.4,-0.17,0.04,0.84,0.86,0.85
6:9:36:22:230579,-3.76,1.7,-101.39,-0.16,0.09,0.9,0.92,0.88
