sysTime,roll,pitch,yaw,ax,ay,az,sqrt,average
6:7:23:43:46017,73.61,23.41,-3.13,-0.07,0.95,0.17,0.97,1.24
6:7:23:43:46064,81.99,21.17,1.42,0.06,0.71,0.2,0.74,1.05
6:7:23:43:46158,84.06,21.72,5.32,-0.12,0.76,0.5,0.92,0.88
6:7:23:43:46255,81.81,16.1,9.67,-0.36,0.84,0.55,1.07,0.91
6:7:23:44:46660,85.12,17.01,0.25,-0.12,0.59,0.21,0.64,0.87
6:7:23:44:46740,85.55,18.89,-4.2,-0.45,0.61,0.26,0.8,0.84
6:7:23:44:46851,84.78,22.51,-3.94,-0.39,1.02,0.49,1.2,0.88
6:7:23:44:46948,85.35,23.62,-3.93,-0.42,1.0,0.45,1.18,1.06
6:7:23:44:47045,86.42,24.62,-3.47,-0.37,1.06,0.49,1.22,1.2
6:7:23:44:47141,86.97,25.01,-2.41,-0.37,0.96,0.3,1.07,1.16
6:7:23:44:47237,87.61,28.65,-2.82,-0.18,0.51,0.17,0.56,0.95
6:7:23:45:47667,83.13,36.15,-3.04,-0.36,1.29,0.8,1.56,1.07
6:7:23:45:47748,82.71,34.11,-6.98,-0.23,0.84,0.51,1.01,1.04
6:7:23:45:47845,82.1,37.03,-9.48,-0.1,0.55,0.36,0.67,1.08
6:7:23:45:47956,83.49,40.28,-11.94,-0.36,0.58,0.31,0.76,0.81
6:7:23:45:48052,82.57,40.68,-15.66,-0.33,0.78,0.51,0.98,0.8
6:7:23:45:48147,80.36,38.74,-19.1,-0.54,1.04,0.57,1.3,1.01
6:7:23:45:48260,84.22,40.02,-17.47,-0.61,1.19,0.52,1.43,1.24
6:7:23:46:48638,91.45,37.91,-4.09,-0.34,0.7,0.56,0.96,1.23
6:7:23:46:48750,88.45,34.0,-6.69,-0.56,0.9,0.76,1.31,1.23
6:7:23:46:48846,85.99,37.92,-5.29,-0.45,0.84,1.06,1.43,1.23
6:7:23:46:49350,88.46,43.09,-2.18,-0.12,0.61,0.59,0.86,1.2
6:7:23:46:49352,85.72,46.55,-7.8,-0.12,0.45,0.37,0.59,0.96
6:7:23:46:49353,78.76,50.83,-17.62,-0.35,0.43,0.56,0.79,0.75
6:7:23:46:49357,70.49,49.0,-27.01,-0.42,0.65,0.7,1.04,0.81
6:7:23:47:49642,102.56,44.61,-12.27,-0.08,0.51,0.3,0.6,0.81
6:7:23:47:49738,111.12,45.14,-4.7,-0.27,0.61,0.59,0.89,0.84
6:7:23:47:49834,115.83,45.95,1.37,-0.27,0.95,0.85,1.31,0.93
6:7:23:47:49945,116.96,46.8,5.19,-0.27,1.0,0.83,1.33,1.17
6:7:23:47:50041,121.02,53.31,11.63,0.31,0.86,0.6,1.09,1.24
6:7:23:47:50154,104.52,49.5,-1.72,-0.07,0.83,0.44,0.94,1.12
6:7:23:47:50234,96.82,54.76,-10.4,-0.04,0.4,0.38,0.56,0.86
6:7:23:48:50638,94.29,58.18,-22.22,0.19,0.84,0.49,0.99,0.83
6:7:23:48:50750,94.0,47.91,-20.65,-0.04,0.8,0.4,0.9,0.81
6:7:23:48:50863,96.71,44.45,-14.69,-0.11,0.41,0.27,0.5,0.8
6:7:23:48:50944,99.38,42.28,-9.12,-0.12,0.82,0.7,1.09,0.83
6:7:23:48:51038,102.79,41.79,-6.44,-0.17,0.93,0.73,1.19,0.93
6:7:23:48:51151,100.62,42.52,-9.02,-0.07,0.93,0.81,1.23,1.17
6:7:23:48:51247,96.8,44.64,-10.89,0.13,0.85,0.59,1.04,1.16
6:7:23:49:51652,37.21,58.47,-47.11,-0.03,0.52,1.21,1.31,1.2
6:7:23:49:51748,32.35,59.24,-46.96,0.02,0.23,1.39,1.41,1.26
6:7:23:49:51860,30.79,55.43,-48.34,0.13,0.24,0.91,0.95,1.22
6:7:23:49:51955,33.89,55.04,-44.31,0.15,0.19,0.45,0.52,0.96
6:7:23:49:52051,36.99,55.38,-37.66,0.05,0.02,0.66,0.67,0.71
6:7:23:49:52147,38.82,57.26,-34.82,0.07,-0.07,1.11,1.12,0.77
6:7:23:49:52243,42.48,62.23,-34.46,0.25,-0.07,1.3,1.32,1.03
6:7:23:50:52654,24.09,65.62,-62.76,0.08,-0.08,0.73,0.74,1.06
6:7:23:50:52751,25.54,69.92,-59.76,0.21,-0.02,1.25,1.27,1.11
6:7:23:50:52848,32.57,69.47,-55.44,0.35,0.01,1.39,1.44,1.15
6:7:23:50:52944,40.79,73.8,-46.39,0.56,-0.07,0.85,1.03,1.24
6:7:23:50:53054,59.83,72.15,-28.04,0.39,0.12,0.65,0.77,1.08
6:7:23:50:53151,67.0,65.04,-24.24,0.27,0.01,0.54,0.6,0.8
6:7:23:50:53262,69.62,61.71,-20.12,0.25,0.1,0.69,0.74,0.7
6:7:23:51:53658,59.54,71.87,-34.85,0.45,0.09,0.6,0.75,0.7
6:7:23:51:53737,63.52,69.84,-37.34,0.17,0.08,0.37,0.42,0.64
6:7:23:51:53850,44.32,72.24,-53.97,0.19,0.12,1.06,1.08,0.75
6:7:23:51:53946,32.91,70.81,-62.55,0.45,0.29,1.58,1.66,1.06
6:7:23:51:54042,46.11,60.5,-60.04,0.37,0.39,1.44,1.54,1.43
6:7:23:51:54153,68.72,44.71,-51.61,0.28,0.74,0.68,1.04,1.42
6:7:23:51:54250,86.55,26.55,-46.39,0.11,0.58,0.3,0.66,1.08
6:7:23:52:54641,109.43,6.84,-41.35,-0.32,1.01,0.26,1.09,0.93
6:7:23:52:54768,108.96,12.66,-43.2,-0.12,0.78,-0.03,0.79,0.85
6:7:23:52:54848,100.69,23.69,-48.61,-0.19,0.55,0.0,0.58,0.82
6:7:23:52:54961,86.38,30.37,-48.86,-0.35,0.87,0.25,0.97,0.78
6:7:23:52:55056,77.5,35.45,-49.21,-0.26,1.03,0.49,1.17,0.91
6:7:23:52:55152,73.52,41.51,-52.31,0.17,1.24,0.39,1.32,1.15
6:7:23:52:55249,68.8,50.21,-50.22,0.43,0.83,0.23,0.96,1.15
6:7:23:53:55648,59.68,60.57,-37.09,0.58,0.85,0.66,1.22,1.17
6:7:23:53:55744,47.57,61.28,-46.18,0.78,0.78,1.01,1.5,1.23
6:7:23:53:55840,41.05,63.08,-51.09,0.73,0.4,0.53,0.98,1.23
6:7:23:53:55984,41.97,58.68,-57.39,0.51,0.38,0.34,0.72,1.07
6:7:23:53:56047,47.25,53.33,-61.33,0.14,0.54,0.09,0.57,0.76
6:7:23:53:56144,43.34,50.73,-69.68,0.43,0.85,0.48,1.07,0.78
6:7:23:53:56240,42.6,48.19,-71.06,0.64,1.06,0.65,1.4,1.01
6:7:23:54:56667,42.41,45.44,-49.25,0.25,0.55,0.58,0.84,1.1
6:7:23:54:56747,39.33,42.54,-48.0,0.35,0.7,0.65,1.02,1.08
6:7:23:54:56843,35.46,37.55,-51.99,0.38,0.76,0.83,1.19,1.02
6:7:23:54:57019,32.03,34.23,-59.42,0.46,0.65,0.94,1.24,1.15
6:7:23:54:57051,33.18,37.64,-63.41,0.39,0.56,0.45,0.81,1.08
6:7:23:54:57163,34.59,40.5,-67.19,0.17,0.5,0.34,0.63,0.89
6:7:23:54:57244,32.43,39.02,-74.72,0.3,0.7,0.67,1.02,0.82
6:7:23:55:57651,41.91,38.2,-61.9,0.26,0.38,0.38,0.6,0.75
6:7:23:55:57778,40.02,39.16,-59.72,0.14,0.5,0.57,0.78,0.8
6:7:23:55:57875,40.42,40.69,-54.29,0.47,0.8,0.86,1.27,0.88
6:7:23:55:58003,40.67,37.85,-51.57,0.46,0.79,0.77,1.19,1.08
6:7:23:55:58050,34.68,34.46,-57.24,0.49,0.59,0.75,1.08,1.18
6:7:23:55:58146,34.45,31.51,-63.34,0.54,0.8,0.73,1.21,1.16
6:7:23:55:58243,33.83,31.19,-71.87,0.21,0.45,0.45,0.67,0.98
6:7:23:56:58664,36.94,28.8,-76.38,0.38,0.81,0.44,0.99,0.96
6:7:23:56:58745,38.45,31.32,-72.58,0.28,0.46,0.48,0.72,0.8
6:7:23:56:58858,37.46,32.36,-66.13,0.09,0.42,0.46,0.63,0.78
6:7:23:56:58969,36.05,33.89,-61.89,0.23,0.6,0.82,1.04,0.8
6:7:23:56:59049,37.02,34.99,-58.75,0.31,0.75,0.98,1.27,0.98
6:7:23:56:59176,32.86,38.07,-62.4,0.65,0.5,1.17,1.43,1.25
6:7:23:56:59256,33.08,38.05,-65.43,0.53,0.48,0.65,0.97,1.22
6:7:23:57:59655,35.52,28.5,-79.66,0.4,0.88,0.86,1.29,1.23
6:7:23:57:59751,39.54,29.89,-73.92,0.6,0.78,0.79,1.26,1.17
6:7:23:57:59894,44.05,32.93,-67.58,0.35,0.63,0.53,0.9,1.15
6:7:23:57:59975,44.8,34.93,-63.52,0.27,0.46,0.55,0.77,0.97
6:7:23:57:60071,44.71,36.49,-57.73,0.24,0.52,0.71,0.91,0.86
6:7:23:57:60151,41.32,31.72,-54.96,0.25,0.63,0.7,0.97,0.88
6:7:23:57:60247,40.03,27.77,-55.78,0.49,0.7,0.85,1.21,1.03
6:7:23:58:60636,46.35,28.28,-74.09,0.2,0.7,0.55,0.91,1.03
6:7:23:58:60748,47.21,23.83,-74.31,0.17,0.9,0.77,1.2,1.11
6:7:23:58:60844,49.43,24.58,-70.4,0.37,0.96,0.74,1.26,1.12
6:7:23:58:61052,54.14,25.33,-58.87,0.48,0.84,0.35,1.03,1.16
6:7:23:58:61068,57.9,23.13,-51.35,0.37,0.6,0.46,0.84,1.04
6:7:23:58:61148,57.85,23.69,-46.77,0.16,0.42,0.38,0.59,0.82
6:7:23:58:61244,56.66,24.72,-43.47,0.18,0.71,0.67,0.99,0.81
6:7:23:59:61641,52.37,25.51,-52.77,0.27,0.51,0.37,0.69,0.76
6:7:23:59:61736,54.17,21.32,-59.44,0.06,0.53,0.34,0.63,0.77
6:7:23:59:61832,53.26,17.49,-66.98,0.21,0.81,0.63,1.04,0.79
6:7:23:59:61944,53.73,15.58,-68.02,0.26,1.05,0.64,1.26,0.98
6:7:23:59:62056,55.21,16.39,-63.45,0.37,0.98,0.54,1.18,1.16
6:7:23:59:62152,57.6,17.2,-57.1,0.36,0.88,0.45,1.06,1.17
6:7:23:59:62247,60.4,18.24,-51.98,0.13,0.56,0.29,0.65,0.96
6:7:24:0:62664,46.27,21.05,-55.63,0.45,0.73,0.83,1.2,0.97
6:7:24:0:62759,45.22,21.05,-59.06,0.22,0.62,0.44,0.79,0.88
6:7:24:0:62872,46.6,20.62,-61.71,0.16,0.5,0.37,0.64,0.88
6:7:24:0:62952,47.7,18.69,-65.96,0.11,0.62,0.52,0.82,0.75
6:7:24:0:63080,48.95,16.65,-68.94,0.21,0.91,0.7,1.16,0.87
6:7:24:0:63159,50.37,16.29,-67.19,0.41,1.08,0.77,1.39,1.12
6:7:24:0:63240,53.96,18.6,-62.0,0.32,0.89,0.39,1.02,1.19
6:7:24:1:63758,51.88,21.65,-52.35,0.32,0.85,0.75,1.18,1.2
6:7:24:1:63791,48.42,22.69,-57.79,0.6,0.94,0.97,1.48,1.23
6:7:24:1:63855,49.67,22.71,-64.51,0.39,0.66,0.56,0.95,1.2
6:7:24:1:63966,51.56,20.96,-70.83,0.15,0.45,0.31,0.57,1.0
6:7:24:1:64047,52.68,21.3,-74.56,0.16,0.55,0.41,0.7,0.74
6:7:24:1:64142,55.12,19.37,-74.75,0.22,0.93,0.6,1.13,0.8
6:7:24:1:64239,56.34,21.25,-70.45,0.33,1.09,0.67,1.32,1.05
6:7:24:2:64933,52.72,23.14,-56.5,0.34,0.62,0.68,0.98,1.14
6:7:24:2:64934,50.12,22.82,-55.84,0.41,0.86,0.81,1.26,1.19
6:7:24:2:64935,48.81,23.12,-58.84,0.55,0.88,0.86,1.35,1.19
6:7:24:2:64981,50.7,23.91,-61.8,0.5,0.61,0.63,1.01,1.21
6:7:24:2:65046,54.88,21.86,-62.19,0.21,0.51,0.3,0.63,1.0
6:7:24:2:65141,56.06,19.14,-65.41,0.11,0.65,0.37,0.76,0.8
6:7:24:2:65253,56.32,17.85,-69.5,0.26,0.92,0.61,1.13,0.84
6:7:24:3:65638,58.73,11.5,-55.23,0.08,0.52,0.37,0.64,0.84
6:7:24:3:65764,56.72,12.21,-53.14,0.03,0.69,0.59,0.91,0.89
6:7:24:3:65876,55.75,14.23,-52.1,0.27,0.88,0.79,1.21,0.92
6:7:24:3:65941,54.41,16.17,-54.59,0.5,1.09,0.91,1.5,1.21
6:7:24:3:66053,54.38,19.13,-59.02,0.37,0.76,0.52,1.0,1.24
6:7:24:3:66148,55.11,19.05,-65.13,0.21,0.6,0.41,0.76,1.09
6:7:24:3:66276,57.25,16.79,-70.38,0.02,0.54,0.34,0.64,0.8
6:7:24:4:66708,61.03,15.07,-64.16,0.28,0.95,0.34,1.05,0.82
6:7:24:4:66756,60.04,14.91,-60.79,0.14,0.52,0.32,0.63,0.77
6:7:24:4:66837,58.33,14.7,-58.66,0.03,0.47,0.4,0.62,0.77
6:7:24:4:66949,60.31,13.75,-56.84,0.13,0.96,0.67,1.17,0.81
6:7:24:4:67108,57.96,20.14,-57.36,0.25,0.83,0.72,1.13,0.97
6:7:24:4:67316,56.68,22.1,-62.71,0.65,1.09,0.77,1.49,1.26
6:7:24:4:67359,57.48,22.8,-68.0,0.43,0.64,0.49,0.92,1.18
6:7:24:5:67639,61.47,25.28,-75.14,0.53,1.12,0.47,1.33,1.24
6:7:24:5:67751,63.61,23.53,-65.87,0.49,0.87,0.2,1.02,1.09
6:7:24:5:67863,62.26,23.16,-59.13,0.3,0.53,0.21,0.64,1.0
6:7:24:5:67959,56.94,24.09,-55.12,0.25,0.42,0.39,0.63,0.76
6:7:24:5:68071,53.7,23.92,-53.78,0.39,0.92,0.71,1.22,0.83
6:7:24:5:68167,50.57,23.74,-55.36,0.51,0.82,0.76,1.23,1.03
6:7:24:5:68247,48.43,26.18,-60.3,0.82,0.76,0.59,1.26,1.24
6:7:24:6:68679,61.97,24.85,-74.5,0.63,1.01,0.52,1.3,1.26
6:7:24:6:68972,66.11,26.53,-69.73,0.94,1.22,0.48,1.61,1.39
6:7:24:6:68973,70.73,24.43,-59.03,0.48,0.96,-0.08,1.08,1.33
6:7:24:6:68974,70.49,22.28,-54.1,0.42,0.66,0.14,0.8,1.16
6:7:24:6:69051,64.05,22.04,-50.27,0.26,0.5,0.23,0.6,0.83
6:7:24:6:69147,57.51,23.23,-49.13,0.53,0.74,0.47,1.02,0.81
6:7:24:6:69258,54.63,20.51,-49.76,0.46,0.85,0.58,1.12,0.92
6:7:24:8:70656,54.6,19.89,-73.2,0.28,0.46,0.32,0.62,0.92
6:7:24:8:70753,58.3,17.49,-79.08,0.12,0.57,0.39,0.7,0.82
6:7:24:8:70880,58.25,16.49,-88.16,0.3,0.78,0.63,1.04,0.79
6:7:24:8:70960,58.68,14.59,-94.74,0.38,0.95,0.71,1.24,1.0
6:7:24:8:71056,58.97,16.16,-98.77,0.64,0.95,0.48,1.24,1.18
6:7:24:8:71153,61.66,15.76,-104.62,0.42,0.81,0.4,1.0,1.16
6:7:24:8:71248,60.93,14.29,-110.45,0.14,0.54,0.4,0.69,0.98
6:7:24:9:71672,59.74,17.38,-126.82,0.39,0.59,0.72,1.01,0.9
6:7:24:9:71753,60.82,20.48,-129.16,0.23,0.55,0.27,0.65,0.79
6:7:24:9:71863,59.4,18.68,-133.79,0.02,0.59,0.37,0.7,0.79
6:7:24:9:71960,54.89,16.02,-140.88,0.22,0.95,0.69,1.19,0.85
6:7:24:9:72056,54.69,13.55,-140.1,0.17,0.97,0.52,1.12,1.0
6:7:24:9:72167,56.62,11.49,-134.3,0.51,1.13,0.64,1.39,1.23
6:7:24:9:72263,58.45,10.78,-126.25,0.38,0.84,0.49,1.05,1.19
6:7:24:11:73648,58.66,17.78,-82.99,0.18,1.0,0.61,1.18,1.21
6:7:24:11:73823,56.7,13.86,-83.85,0.19,1.02,0.68,1.24,1.16
6:7:24:11:73855,49.62,14.95,-89.92,0.44,0.85,0.94,1.34,1.25
6:7:24:11:73952,50.65,15.69,-94.03,0.34,0.7,0.63,1.0,1.19
6:7:24:11:74063,53.36,17.26,-97.97,0.11,0.46,0.31,0.57,0.97
6:7:24:11:74159,54.69,17.89,-103.84,0.01,0.54,0.5,0.73,0.77
6:7:24:11:74255,51.82,20.36,-108.6,0.14,0.86,0.75,1.15,0.82
6:7:24:12:74652,57.21,21.7,-99.66,0.12,0.38,0.31,0.51,0.8
6:7:24:12:74764,56.24,19.86,-97.9,0.14,0.64,0.63,0.91,0.86
6:7:24:12:74860,55.32,17.97,-97.93,0.31,1.03,0.79,1.34,0.92
6:7:24:12:74972,51.61,19.23,-102.1,0.46,0.95,0.75,1.29,1.18
6:7:24:12:75052,51.65,18.84,-109.35,0.54,0.86,0.68,1.22,1.28
6:7:24:12:75163,52.14,19.52,-116.99,0.2,0.51,0.33,0.64,1.05
6:7:24:12:75243,52.62,19.23,-121.16,0.06,0.61,0.34,0.7,0.85
6:7:24:13:75659,50.59,11.43,-114.71,0.21,0.59,0.37,0.73,0.69
6:7:24:13:75756,46.6,12.92,-104.22,0.08,0.4,0.32,0.52,0.65
6:7:24:13:75867,44.66,14.19,-93.31,0.17,0.68,0.72,1.0,0.75
6:7:24:13:75963,43.21,16.37,-88.98,0.39,0.83,0.96,1.32,0.95
6:7:24:13:76108,41.99,21.13,-90.87,0.68,0.7,1.06,1.44,1.26
6:7:24:13:76155,44.26,24.33,-92.16,0.29,0.49,0.52,0.77,1.18
6:7:24:13:76284,47.2,24.35,-94.6,0.18,0.44,0.42,0.63,0.95
6:7:24:14:76876,53.4,19.25,-85.3,0.54,0.94,0.42,1.16,0.85
6:7:24:14:76907,51.98,20.77,-80.66,0.3,0.39,0.36,0.61,0.8
6:7:24:14:76923,49.18,22.29,-75.02,0.07,0.45,0.42,0.62,0.8
6:7:24:14:76956,45.53,23.04,-72.5,0.35,0.88,0.92,1.32,0.85
6:7:24:14:77067,43.45,21.58,-74.05,0.46,0.82,0.95,1.34,1.09
6:7:24:14:77195,41.39,21.08,-78.59,0.47,0.64,0.86,1.17,1.28
6:7:24:14:77275,41.74,20.69,-82.69,0.42,0.57,0.63,0.95,1.15
6:7:24:15:77683,48.76,15.22,-96.23,0.5,0.75,0.83,1.23,1.11
6:7:24:15:77777,49.46,12.3,-99.93,0.51,0.89,0.93,1.39,1.19
6:7:24:15:77857,48.86,13.98,-111.49,0.24,0.42,0.48,0.68,1.1
6:7:24:15:77953,46.99,17.45,-125.2,0.23,0.43,0.5,0.7,0.92
6:7:24:15:78049,45.65,19.15,-140.53,0.46,0.61,0.52,0.93,0.77
6:7:24:15:78161,44.24,18.39,-159.26,0.55,0.96,0.9,1.43,1.02
6:7:24:15:78257,43.53,16.92,-179.2,0.38,0.51,1.05,1.23,1.2
6:7:24:16:78641,47.13,16.85,158.2,0.25,0.54,0.64,0.88,1.18
6:7:24:16:78753,50.46,18.6,157.59,0.2,0.71,0.64,0.98,1.03
6:7:24:16:78865,52.78,18.09,158.38,0.39,0.68,0.78,1.11,0.99
6:7:24:16:78960,56.87,19.74,164.68,0.37,0.85,0.64,1.13,1.07
6:7:24:16:79056,59.59,22.27,169.7,0.37,0.78,0.49,0.99,1.08
6:7:24:16:79169,61.59,20.96,170.8,0.28,0.78,0.51,0.97,1.03
6:7:24:16:79264,62.83,21.06,173.08,0.37,0.79,0.46,0.99,0.98
6:7:24:17:79638,61.82,23.07,168.78,0.34,0.65,0.81,1.09,1.02
6:7:24:17:79765,61.85,23.92,170.07,0.23,0.56,0.56,0.83,0.97
6:7:24:17:79893,61.78,22.28,170.07,0.21,0.64,0.53,0.86,0.93
6:7:24:17:79958,61.56,19.77,169.1,0.39,0.69,0.66,1.03,0.91
6:7:24:17:80069,60.73,19.58,170.27,0.33,0.64,0.54,0.9,0.93
6:7:24:17:80166,61.62,18.02,172.74,0.32,0.9,0.66,1.16,1.03
6:7:24:17:80262,62.2,20.08,175.35,0.26,0.94,0.71,1.2,1.09
6:7:24:18:80645,61.88,16.46,172.74,0.34,0.74,0.45,0.93,1.1
6:7:24:18:80757,61.41,16.63,172.33,0.27,0.93,0.66,1.17,1.1
6:7:24:18:80869,62.82,19.28,171.65,0.49,1.03,0.82,1.41,1.17
6:7:24:18:80950,62.56,22.59,172.86,0.22,0.53,0.55,0.8,1.13
6:7:24:18:81093,61.45,21.57,174.13,0.17,0.56,0.61,0.84,1.02
6:7:24:18:81189,60.49,21.45,175.53,0.33,0.6,0.65,0.94,0.86
6:7:24:18:81269,62.07,19.12,177.27,0.32,0.6,0.53,0.86,0.88
6:7:24:19:81653,68.08,17.38,179.74,0.11,0.68,0.31,0.76,0.85
6:7:24:19:81765,66.19,15.98,174.46,0.14,0.69,0.39,0.81,0.81
6:7:24:19:81861,62.73,15.47,170.79,0.3,0.77,0.51,0.97,0.84
6:7:24:19:81989,60.7,14.83,168.2,0.24,0.86,0.61,1.08,0.95
6:7:24:19:82053,62.03,15.94,167.25,0.34,1.19,0.91,1.54,1.2
6:7:24:19:82166,66.87,21.78,169.66,0.2,0.6,0.55,0.84,1.15
6:7:24:19:82260,66.95,22.38,169.13,0.17,0.59,0.51,0.8,1.06
6:7:24:20:82652,65.46,17.9,173.24,0.28,0.8,0.63,1.06,0.9
6:7:24:20:82763,63.68,20.6,173.83,0.23,0.99,0.57,1.16,1.01
6:7:24:20:82859,60.87,24.24,172.16,0.34,0.55,0.49,0.81,1.01
6:7:24:20:82956,63.37,19.25,172.0,0.22,0.66,0.47,0.84,0.94
6:7:24:20:83052,59.87,19.41,172.74,0.34,0.73,0.51,0.95,0.87
6:7:24:20:83195,54.35,22.01,172.44,0.37,0.6,0.68,0.98,0.92
6:7:24:20:83260,52.98,21.34,173.17,0.32,0.9,0.98,1.37,1.1
6:7:24:21:83669,53.88,22.18,-177.88,0.35,0.54,0.85,1.06,1.14
6:7:24:21:83766,55.98,20.73,-174.33,0.33,0.42,0.61,0.81,1.08
6:7:24:21:83861,58.83,18.51,-172.23,0.39,0.55,0.63,0.92,0.93
6:7:24:21:83941,56.84,16.56,-175.58,0.34,0.6,0.87,1.12,0.95
6:7:24:21:84038,55.12,15.92,-179.93,0.18,0.69,0.87,1.12,1.05
6:7:24:21:84150,52.36,19.23,178.65,0.17,0.72,0.77,1.06,1.1
6:7:24:21:84261,51.6,19.99,-179.55,0.15,0.57,0.69,0.91,1.03
6:7:24:22:84654,31.83,9.03,-173.55,0.15,0.33,0.88,0.95,0.97
6:7:24:22:84767,27.37,8.34,-171.7,0.16,0.27,0.9,0.95,0.93
6:7:24:22:84861,23.27,8.59,-169.21,0.15,0.12,0.85,0.87,0.92
6:7:24:22:84958,15.77,7.78,-167.72,0.06,-0.01,1.04,1.05,0.95
6:7:24:22:85070,7.05,9.56,-167.03,0.1,-0.07,0.97,0.97,0.96
6:7:24:22:85134,0.06,13.33,-165.97,0.26,-0.22,0.88,0.95,0.99
6:7:24:22:85245,-1.45,12.69,-162.66,0.22,-0.18,0.98,1.02,0.98
6:7:24:23:85651,0.87,10.12,-158.63,0.18,-0.03,0.94,0.96,0.98
6:7:24:23:85762,0.96,9.52,-156.7,0.17,0.0,0.96,0.97,0.99
6:7:24:23:85858,0.59,8.55,-155.01,0.13,-0.03,0.95,0.96,0.97
6:7:24:23:85954,-0.22,7.98,-153.58,0.12,-0.02,0.98,0.99,0.97
6:7:24:23:86050,-0.99,7.63,-152.24,0.13,-0.03,0.96,0.97,0.97
6:7:24:23:86148,-1.34,7.13,-150.92,0.12,-0.03,0.98,0.98,0.98
6:7:24:23:86243,-1.59,6.72,-150.19,0.09,-0.03,0.99,0.99,0.98
6:7:24:24:86658,-2.41,6.49,-148.07,0.11,-0.04,0.97,0.98,0.99
6:7:24:24:86738,-2.16,6.39,-147.66,0.11,-0.04,0.98,0.98,0.99
6:7:24:24:86835,-2.02,6.74,-147.4,0.12,-0.05,0.97,0.98,0.98
6:7:24:24:86946,-1.71,6.91,-147.06,0.11,-0.03,0.96,0.97,0.98
6:7:24:24:87059,-1.47,7.06,-146.73,0.11,-0.02,0.98,0.98,0.98
6:7:24:24:87138,-1.23,7.04,-146.4,0.12,-0.02,0.97,0.98,0.98
6:7:24:24:87234,-1.05,7.12,-146.17,0.12,-0.01,0.97,0.98,0.98
6:7:24:25:87661,-0.69,7.86,-143.63,0.11,-0.01,0.95,0.95,0.97
6:7:24:25:87757,-0.81,8.29,-142.99,0.1,-0.05,0.96,0.96,0.96
6:7:24:25:87854,-1.36,8.4,-143.27,0.02,-0.12,0.94,0.95,0.96
6:7:24:25:87949,-2.96,8.1,-143.62,0.04,-0.01,1.07,1.07,0.99
6:7:24:25:88045,-2.45,11.36,-145.13,0.04,-0.06,0.89,0.89,0.97
6:7:24:25:88172,-2.23,12.57,-146.01,0.12,-0.06,1.04,1.05,1.0
6:7:24:25:88252,0.09,10.98,-145.41,0.09,-0.02,1.01,1.01,0.98
6:7:24:26:88638,10.01,8.77,-140.07,0.14,0.14,0.75,0.78,0.95
6:7:24:26:88764,9.88,9.14,-141.26,0.08,0.16,0.83,0.85,0.88
6:7:24:26:88861,9.89,8.8,-141.96,0.06,0.19,0.97,0.99,0.87
6:7:24:26:88972,10.12,5.88,-142.96,0.05,0.12,1.06,1.07,0.97
6:7:24:26:89036,11.28,2.5,-145.2,0.04,0.3,1.1,1.14,1.07
6:7:24:26:89133,12.8,-1.21,-148.26,0.19,0.33,1.01,1.08,1.1
6:7:24:26:89260,11.95,3.12,-151.57,0.32,0.12,1.02,1.07,1.1
6:7:24:27:89653,28.53,14.23,-157.42,0.45,0.48,0.98,1.18,1.11
6:7:24:27:89749,28.61,15.52,-153.91,0.43,0.43,0.86,1.05,1.1
6:7:24:27:89846,28.0,16.41,-149.68,0.4,0.38,0.71,0.89,1.04
6:7:24:27:89958,22.0,12.65,-147.93,0.12,0.21,0.63,0.67,0.87
6:7:24:27:90037,14.75,10.08,-147.5,0.08,0.21,0.84,0.87,0.81
6:7:24:27:90165,14.33,7.76,-147.42,0.06,0.21,1.01,1.04,0.86
6:7:24:27:90245,16.94,5.2,-150.08,0.1,0.3,1.16,1.2,1.04
6:7:24:28:90641,22.81,14.31,-161.63,0.13,0.4,0.9,0.99,1.08
6:7:24:28:90752,25.53,16.42,-161.31,0.27,0.52,0.99,1.15,1.11
6:7:24:28:90848,27.94,15.3,-157.44,0.57,0.68,1.2,1.49,1.21
6:7:24:28:90944,26.96,16.31,-151.62,0.47,0.33,0.73,0.93,1.19
6:7:24:28:91055,27.66,16.18,-143.66,0.3,0.26,0.5,0.64,1.02
6:7:24:28:91136,25.36,15.1,-138.93,0.16,0.16,0.61,0.65,0.74
6:7:24:28:91280,24.03,12.17,-135.85,0.16,0.39,0.98,1.07,0.78
6:7:24:29:91677,21.76,14.57,-152.3,0.18,0.2,0.56,0.63,0.78
6:7:24:29:91759,22.94,17.8,-156.7,0.14,0.33,0.63,0.73,0.81
6:7:24:29:91870,23.96,16.3,-159.57,0.29,0.41,0.99,1.11,0.82
6:7:24:29:91934,25.65,12.49,-158.65,0.37,0.5,1.1,1.27,1.04
6:7:24:29:92078,26.54,11.54,-153.49,0.39,0.45,0.89,1.07,1.15
6:7:24:29:92141,27.25,10.83,-148.71,0.34,0.38,0.92,1.05,1.13
6:7:24:29:92302,28.2,8.0,-145.97,0.06,0.19,0.6,0.63,0.92
6:7:24:30:92790,20.39,6.49,-157.11,0.23,0.17,0.93,0.97,0.88
6:7:24:30:92791,22.18,8.7,-160.82,0.18,0.21,0.54,0.61,0.73
6:7:24:30:92903,23.54,10.01,-162.86,0.13,0.31,0.71,0.78,0.79
6:7:24:30:92999,23.62,10.23,-165.74,0.07,0.37,0.92,0.99,0.79
6:7:24:30:93063,24.17,12.43,-166.37,0.32,0.56,1.11,1.28,1.02
6:7:24:30:93174,25.49,15.46,-162.21,0.54,0.4,1.08,1.27,1.18
6:7:24:31:93669,26.96,12.56,-154.92,0.39,0.38,0.93,1.08,1.21
6:7:24:31:93950,18.02,6.76,-142.16,0.19,0.17,1.1,1.13,1.16
6:7:24:31:94047,21.24,4.54,-144.83,0.3,0.26,1.24,1.3,1.17
6:7:24:31:94077,20.9,9.43,-151.23,0.26,0.24,0.73,0.82,1.08
6:7:24:31:94174,21.41,10.55,-157.47,0.13,0.23,0.51,0.58,0.9
6:7:24:31:94238,20.7,11.68,-164.37,0.17,0.33,0.86,0.94,0.78
6:7:24:31:94429,21.93,12.71,-165.13,0.29,0.53,1.11,1.26,0.92
6:7:24:32:94535,24.84,11.4,-160.39,0.41,0.47,1.15,1.31,1.17
6:7:24:32:94653,21.99,8.61,-139.18,0.03,0.4,1.14,1.21,1.26
6:7:24:32:94763,22.48,8.16,-137.96,0.13,0.45,1.2,1.29,1.27
6:7:24:32:94859,21.32,8.77,-143.24,0.43,0.31,1.28,1.38,1.29
6:7:24:32:94940,22.46,9.15,-149.77,0.28,0.16,0.9,0.95,1.21
6:7:24:32:95051,26.99,10.23,-153.78,0.15,0.22,0.49,0.56,0.96
6:7:24:32:95164,26.63,12.48,-158.79,0.12,0.35,0.73,0.82,0.78
6:7:24:32:95260,25.02,15.12,-160.83,0.36,0.49,1.0,1.17,0.85
6:7:24:33:95669,22.5,12.84,-144.53,0.06,0.11,0.55,0.57,0.85
6:7:24:33:95749,21.82,11.45,-140.67,0.15,0.37,1.0,1.08,0.94
6:7:24:33:95845,19.12,12.39,-139.95,0.26,0.34,1.12,1.2,0.95
6:7:24:33:95989,17.89,13.77,-141.93,0.43,0.22,1.29,1.37,1.22
6:7:24:33:96037,24.66,14.13,-141.56,0.37,0.18,0.83,0.93,1.17
6:7:24:33:96149,29.87,14.89,-142.87,0.21,0.24,0.54,0.63,0.98
6:7:24:33:96245,33.72,16.95,-145.64,0.08,0.4,0.58,0.71,0.76
6:7:24:34:96654,37.58,21.56,-145.8,0.57,0.58,0.72,1.09,0.81
6:7:24:34:96749,36.82,22.38,-141.48,0.24,0.27,0.27,0.45,0.75
6:7:24:34:96846,30.38,17.82,-143.27,0.13,0.37,0.79,0.88,0.81
6:7:24:34:96974,26.25,14.85,-145.52,0.25,0.51,1.24,1.36,0.9
6:7:24:34:97054,22.89,16.85,-149.26,0.31,0.47,1.26,1.38,1.21
6:7:24:34:97149,22.25,22.27,-153.36,0.42,0.19,0.73,0.86,1.2
6:7:24:34:97245,21.14,25.32,-157.46,0.39,0.26,0.6,0.76,1.0
6:7:24:35:97656,29.89,23.34,-154.65,0.65,0.41,0.95,1.23,0.95
6:7:24:35:97800,30.63,24.76,-149.04,0.6,0.39,0.74,1.03,1.01
6:7:24:35:97864,28.61,22.6,-146.42,0.24,0.27,0.55,0.66,0.97
6:7:24:35:97945,26.26,19.47,-146.45,0.08,0.3,0.86,0.92,0.87
6:7:24:35:98072,24.7,16.54,-146.01,0.24,0.39,0.95,1.06,0.88
6:7:24:35:98167,23.69,15.45,-147.3,0.5,0.4,1.07,1.25,1.08
6:7:24:35:98247,23.02,16.39,-151.63,0.46,0.2,0.87,1.0,1.1
6:7:24:36:98654,28.37,17.48,-160.22,0.6,0.46,1.03,1.28,1.18
6:7:24:36:98750,31.54,18.88,-154.06,0.65,0.46,0.89,1.19,1.16
6:7:24:36:98863,29.23,23.35,-148.29,0.58,0.27,0.8,1.02,1.17
6:7:24:36:98958,26.19,23.25,-143.27,0.2,0.2,0.43,0.51,0.91
6:7:24:36:99070,24.83,19.06,-139.77,0.17,0.27,0.72,0.79,0.77
6:7:24:36:99151,26.13,17.19,-139.26,0.5,0.32,1.23,1.36,0.89
6:7:24:36:99247,28.18,15.88,-141.27,0.45,0.3,1.17,1.29,1.15
6:7:24:37:99646,36.52,22.13,-153.63,0.31,0.74,0.83,1.16,1.27
6:7:24:37:99774,35.64,21.33,-155.49,0.56,0.65,0.96,1.28,1.24
6:7:24:37:99854,37.45,21.1,-146.42,0.72,0.55,0.73,1.17,1.2
6:7:24:37:99951,34.11,23.36,-138.31,0.67,0.27,0.67,0.99,1.14
6:7:24:37:100047,33.57,20.88,-131.14,0.22,0.22,0.49,0.58,0.91
6:7:24:37:100142,31.15,17.63,-129.27,0.14,0.26,0.81,0.87,0.81
6:7:24:37:100254,29.05,13.7,-128.9,0.37,0.44,1.22,1.35,0.93
6:7:24:38:100647,23.19,10.67,-157.93,0.12,0.37,0.66,0.77,1.0
6:7:24:38:100743,27.73,4.01,-161.99,-0.1,0.53,0.97,1.1,1.07
6:7:24:38:100886,28.15,4.93,-162.13,0.33,0.57,1.18,1.35,1.08
6:7:24:38:100935,25.56,12.06,-157.2,0.46,0.45,0.91,1.11,1.19
6:7:24:38:101031,30.32,17.34,-148.81,0.41,0.31,0.69,0.86,1.11
6:7:24:38:101142,31.09,19.15,-145.09,0.27,0.22,0.5,0.61,0.86
6:7:24:38:101238,28.78,15.56,-145.05,0.18,0.36,0.85,0.94,0.8
6:7:24:39:101652,18.47,16.21,-153.41,0.14,0.18,0.52,0.57,0.7
6:7:24:39:101733,21.33,15.97,-151.93,0.1,0.22,0.65,0.69,0.73
6:7:24:39:101844,24.46,14.72,-151.41,0.33,0.43,1.05,1.18,0.81
6:7:24:39:101956,29.96,13.19,-148.22,0.29,0.6,1.03,1.23,1.03
6:7:24:39:102068,29.25,16.25,-144.77,0.44,0.39,0.73,0.94,1.11
6:7:24:39:102149,27.77,19.51,-142.13,0.46,0.19,0.7,0.86,1.01
6:7:24:39:102260,29.09,14.27,-138.79,0.16,0.18,0.48,0.54,0.78
6:7:24:40:102673,19.32,7.91,-152.53,0.26,0.16,0.76,0.82,0.74
6:7:24:40:102754,19.43,8.69,-156.68,0.08,0.17,0.48,0.51,0.63
6:7:24:40:102850,20.8,12.96,-158.09,0.14,0.35,0.74,0.83,0.72
6:7:24:40:102946,22.3,14.72,-159.48,0.32,0.49,1.07,1.22,0.85
6:7:24:40:103058,25.15,12.99,-157.35,0.59,0.56,1.23,1.48,1.18
6:7:24:40:103138,26.29,15.63,-153.71,0.45,0.19,1.02,1.13,1.28
6:7:24:40:103234,27.7,19.33,-144.84,0.17,0.19,0.51,0.57,1.06
6:7:24:41:103695,19.58,14.1,-143.24,0.42,0.06,0.89,0.99,0.89
6:7:24:41:103743,16.34,12.93,-147.16,0.24,0.03,0.72,0.76,0.77
6:7:24:41:103855,13.47,13.99,-150.66,0.07,0.23,0.51,0.56,0.77
6:7:24:41:103934,9.91,14.73,-154.84,0.18,0.16,1.12,1.14,0.82
6:7:24:41:104063,11.45,14.53,-154.64,0.34,0.19,1.3,1.36,1.02
6:7:24:41:104175,14.43,14.37,-149.05,0.42,0.28,1.21,1.31,1.27
6:7:24:41:104238,14.86,18.45,-141.63,0.5,0.11,0.9,1.04,1.24
6:7:24:42:104669,14.91,13.34,-130.46,0.26,0.15,1.14,1.18,1.17
6:7:24:42:104749,15.27,12.7,-136.3,0.37,0.07,1.05,1.12,1.11
6:7:24:42:104845,14.98,12.44,-142.74,0.19,0.06,0.68,0.71,1.0
6:7:24:42:104989,15.04,13.97,-146.45,0.04,0.21,0.49,0.54,0.79
6:7:24:42:105037,13.86,12.74,-151.2,0.18,0.25,1.17,1.21,0.82
6:7:24:42:105165,16.23,11.27,-150.7,0.29,0.35,1.2,1.28,1.01
6:7:24:42:105261,18.48,13.3,-144.23,0.3,0.24,0.91,0.99,1.16
6:7:24:43:105650,16.81,12.22,-130.79,0.21,0.3,1.28,1.34,1.2
6:7:24:43:105746,14.48,12.35,-131.99,0.28,0.17,1.17,1.21,1.18
6:7:24:43:105843,13.31,11.13,-136.27,0.33,0.04,1.1,1.15,1.23
6:7:24:43:105954,12.4,10.14,-141.6,0.09,0.08,0.68,0.69,1.02
6:7:24:43:106050,9.17,10.73,-146.38,-0.02,0.21,0.57,0.6,0.81
6:7:24:43:106146,4.46,10.64,-151.05,0.2,0.08,1.43,1.44,0.91
6:7:24:43:106242,6.22,12.53,-149.33,0.23,0.08,1.27,1.3,1.11
6:7:24:44:106654,12.61,15.16,-130.35,0.21,0.25,1.17,1.22,1.32
6:7:24:44:106750,8.01,15.68,-132.31,0.31,0.15,1.23,1.27,1.26
6:7:24:44:106846,6.75,13.95,-134.36,0.39,-0.02,1.26,1.32,1.27
6:7:24:44:106943,11.47,16.22,-133.06,0.43,0.02,0.88,0.98,1.19
6:7:24:44:107038,14.46,17.45,-134.41,0.12,0.09,0.45,0.48,0.93
6:7:24:44:107135,13.89,16.42,-138.33,0.11,0.16,0.79,0.82,0.76
6:7:24:44:107262,15.66,13.17,-140.2,0.21,0.32,1.25,1.3,0.86
6:7:24:45:107674,17.07,19.35,-130.66,0.1,0.23,0.59,0.64,0.92
6:7:24:45:107754,16.37,16.92,-129.5,0.19,0.36,0.97,1.05,1.0
6:7:24:45:107850,16.56,14.41,-130.76,0.29,0.32,1.21,1.28,0.99
6:7:24:45:107947,14.6,14.05,-135.02,0.48,0.08,1.26,1.36,1.23
6:7:24:45:108059,16.65,16.42,-138.36,0.38,0.13,0.85,0.94,1.19
6:7:24:45:108138,18.1,17.5,-141.01,0.11,0.21,0.43,0.49,0.93
6:7:24:45:108234,18.29,17.03,-143.02,0.11,0.43,0.85,0.96,0.8
6:7:24:46:108674,27.69,22.64,-135.15,0.4,0.24,0.65,0.8,0.75
6:7:24:46:108754,27.69,21.13,-131.03,0.09,0.36,0.57,0.68,0.81
6:7:24:46:108865,26.96,21.16,-128.78,0.3,0.45,0.91,1.06,0.85
6:7:24:46:108962,26.15,22.5,-129.48,0.41,0.45,1.16,1.31,1.01
6:7:24:46:109058,25.24,24.8,-132.91,0.56,0.38,1.0,1.21,1.19
6:7:24:46:109153,20.01,28.86,-141.14,0.51,0.09,0.79,0.94,1.15
6:7:24:46:109249,19.18,29.89,-145.31,0.3,0.1,0.55,0.63,0.93
6:7:24:47:109659,31.39,29.14,-130.84,0.73,0.51,0.72,1.15,0.91
6:7:24:47:109770,32.72,28.34,-129.83,0.46,0.19,0.71,0.87,0.88
6:7:24:47:109835,41.63,24.88,-123.09,0.25,0.5,0.57,0.79,0.94
6:7:24:47:109946,43.92,22.53,-120.87,0.27,0.72,0.55,0.94,0.87
6:7:24:47:110075,40.93,18.62,-124.29,0.48,0.79,0.81,1.23,0.99
6:7:24:47:110139,37.53,13.63,-130.94,0.42,0.63,0.82,1.12,1.09
6:7:24:47:110251,36.53,14.18,-134.83,0.36,0.56,0.49,0.83,1.06
6:7:24:49:111658,16.35,3.92,-137.84,0.6,0.22,1.1,1.27,1.07
6:7:24:49:111770,27.52,-2.01,-119.05,0.55,0.42,0.99,1.21,1.1
6:7:24:49:111850,37.61,-11.79,-98.97,0.1,0.84,0.55,1.01,1.16
6:7:24:49:111946,40.65,-17.55,-91.42,-0.19,0.55,0.26,0.64,0.95
6:7:24:49:112057,36.06,-24.27,-91.13,-0.28,0.75,0.31,0.86,0.84
6:7:24:49:112154,30.01,-26.74,-101.43,-0.32,0.86,0.76,1.19,0.9
6:7:24:49:112266,29.95,-31.76,-111.35,-0.44,0.88,0.88,1.32,1.13
6:7:24:50:112676,23.78,-1.48,-147.41,0.27,0.49,0.56,0.8,1.1
6:7:24:50:112756,14.9,-7.62,-144.42,0.07,0.85,1.33,1.58,1.23
6:7:24:50:112836,12.11,-2.59,-144.16,0.6,0.67,1.19,1.5,1.29
6:7:24:50:112963,7.61,-0.51,-141.3,0.38,0.35,0.92,1.06,1.38
6:7:24:50:113060,5.37,3.67,-140.76,0.11,0.25,0.45,0.53,1.03
6:7:24:50:113156,5.88,-1.25,-140.26,0.02,0.34,0.82,0.89,0.83
6:7:24:50:113251,6.43,-3.67,-141.61,0.0,0.55,1.18,1.31,0.91
6:7:24:51:113673,9.03,-3.98,-151.97,0.09,0.2,0.56,0.61,0.93
6:7:24:51:113737,8.53,-1.89,-154.67,0.02,0.27,0.98,1.02,0.98
6:7:24:51:113865,8.54,-1.56,-152.74,0.33,0.4,1.39,1.48,1.04
6:7:24:51:113945,9.07,0.12,-148.83,0.42,0.29,0.96,1.09,1.2
6:7:24:51:114041,8.37,1.6,-144.46,0.42,0.3,0.81,0.96,1.17
6:7:24:51:114184,9.29,5.85,-142.8,0.25,0.1,0.56,0.62,0.89
6:7:24:51:114264,8.3,6.29,-141.48,0.03,0.21,0.7,0.73,0.77
6:7:24:52:114645,2.73,-1.62,-145.02,0.12,0.16,0.71,0.74,0.7
6:7:24:52:114757,2.62,2.03,-148.89,-0.08,0.14,0.63,0.65,0.71
6:7:24:52:114852,2.87,2.83,-152.38,0.09,0.14,0.94,0.96,0.78
6:7:24:52:114948,4.62,-0.41,-153.67,0.25,0.09,1.32,1.34,0.99
6:7:24:52:115044,3.02,1.67,-150.09,0.48,0.15,1.23,1.33,1.21
6:7:24:52:115141,5.02,3.81,-145.65,0.33,0.24,0.81,0.91,1.19
6:7:24:52:115268,4.43,3.55,-143.76,0.1,0.1,0.54,0.56,0.93
6:7:24:53:115660,0.89,-0.73,-143.22,0.2,0.03,1.01,1.03,0.83
6:7:24:53:115756,5.16,0.95,-145.91,0.11,0.09,0.68,0.7,0.76
6:7:24:53:115836,7.17,2.64,-149.04,0.01,0.2,0.66,0.69,0.8
6:7:24:53:115948,7.4,2.22,-152.97,0.04,0.17,0.99,1.01,0.8
6:7:24:53:116043,8.39,0.97,-153.38,0.21,0.2,1.3,1.33,1.01
