sysTime,roll,pitch,yaw,ax,ay,az,sqrt,average
6:8:55:26:11981,94.04,-25.94,111.05,-0.46,0.91,-0.05,1.02,1.02
6:8:55:26:12091,93.84,-25.73,110.77,-0.43,0.91,-0.05,1.01,1.02
6:8:55:26:12188,93.72,-25.83,110.66,-0.46,0.92,-0.07,1.03,1.02
6:8:55:26:12300,93.54,-25.51,110.35,-0.46,0.92,-0.04,1.03,1.02
6:8:55:26:12395,93.75,-25.58,110.23,-0.45,0.92,-0.06,1.02,1.03
6:8:55:26:12493,93.79,-25.4,110.17,-0.44,0.92,-0.06,1.02,1.02
6:8:55:26:12588,94.12,-25.47,110.13,-0.44,0.91,-0.07,1.01,1.02
6:8:55:27:12996,93.78,-25.44,110.83,-0.44,0.92,-0.07,1.03,1.02
6:8:55:27:13091,93.74,-25.2,110.5,-0.42,0.94,-0.07,1.03,1.02
6:8:55:27:13187,93.91,-25.34,110.83,-0.43,0.93,-0.06,1.02,1.03
6:8:55:27:13299,94.14,-25.65,110.93,-0.45,0.9,-0.07,1.01,1.02
6:8:55:27:13395,93.83,-25.54,110.89,-0.43,0.9,-0.06,1.0,1.01
6:8:55:27:13491,93.98,-25.55,111.1,-0.45,0.89,-0.06,1.0,1.0
6:8:55:27:13602,93.92,-25.57,111.14,-0.44,0.92,-0.06,1.02,1.01
6:8:55:28:13965,93.48,-25.26,111.01,-0.42,0.92,-0.04,1.01,1.01
6:8:55:28:14093,93.73,-25.35,110.92,-0.44,0.92,-0.07,1.02,1.02
6:8:55:28:14204,93.9,-25.45,110.87,-0.45,0.93,-0.07,1.03,1.02
6:8:55:28:14284,93.98,-25.34,110.94,-0.45,0.91,-0.05,1.02,1.02
6:8:55:28:14396,94.05,-25.34,110.76,-0.45,0.92,-0.06,1.03,1.02
6:8:55:28:14492,94.28,-25.35,110.73,-0.45,0.92,-0.05,1.03,1.02
6:8:55:28:14588,94.52,-25.37,110.63,-0.44,0.93,-0.08,1.03,1.03
6:8:55:29:14985,94.02,-25.48,110.32,-0.44,0.92,-0.07,1.02,1.03
6:8:55:29:15081,93.57,-25.22,110.31,-0.44,0.92,-0.06,1.02,1.03
6:8:55:29:15194,93.4,-25.11,110.28,-0.43,0.92,-0.05,1.01,1.02
6:8:55:29:15289,93.14,-24.98,110.26,-0.42,0.9,-0.04,1.0,1.01
6:8:55:29:15385,93.16,-25.09,110.27,-0.43,0.91,-0.04,1.01,1.01
6:8:55:29:15497,93.47,-25.11,110.15,-0.43,0.93,-0.06,1.02,1.01
6:8:55:29:15593,93.49,-24.95,109.99,-0.42,0.9,-0.04,0.99,1.01
6:8:55:30:15975,93.44,-24.67,109.53,-0.43,0.92,-0.07,1.02,1.01
6:8:55:30:16086,93.38,-24.64,109.58,-0.42,0.92,-0.05,1.02,1.01
6:8:55:30:16198,93.45,-24.58,109.66,-0.43,0.93,-0.05,1.02,1.02
6:8:55:30:16294,94.12,-25.4,109.84,-0.48,0.93,-0.08,1.05,1.03
6:8:55:30:16391,93.91,-25.26,110.09,-0.4,0.91,-0.04,0.99,1.02
6:8:55:30:16485,93.77,-25.28,110.29,-0.44,0.92,-0.07,1.02,1.02
6:8:55:30:16598,93.73,-25.12,110.2,-0.42,0.9,-0.06,0.99,1.0
6:8:55:31:16981,95.01,-25.39,108.76,-0.42,0.9,-0.07,1.0,1.0
6:8:55:31:17093,94.57,-25.59,109.27,-0.44,0.92,-0.08,1.02,1.0
6:8:55:31:17189,93.83,-25.55,109.62,-0.44,0.93,-0.07,1.03,1.01
6:8:55:31:17284,93.18,-25.59,109.78,-0.44,0.93,-0.05,1.03,1.02
6:8:55:31:17397,92.49,-25.2,109.68,-0.42,0.93,-0.03,1.01,1.02
6:8:55:31:17493,93.16,-25.74,109.59,-0.43,0.91,-0.05,1.01,1.02
6:8:55:31:17605,94.15,-26.08,109.42,-0.44,0.88,-0.08,0.99,1.01
6:8:55:32:17979,101.71,-29.45,104.65,-0.52,0.85,-0.15,1.0,1.0
6:8:55:32:18091,102.41,-30.14,103.22,-0.49,0.88,-0.16,1.02,1.0
6:8:55:32:18202,102.46,-30.25,102.41,-0.56,0.9,-0.18,1.07,1.03
6:8:55:32:18282,100.96,-29.57,102.72,-0.52,0.89,-0.11,1.03,1.04
6:8:55:32:18394,99.91,-29.55,103.05,-0.51,0.9,-0.15,1.04,1.05
6:8:55:32:18490,98.77,-28.68,103.89,-0.47,0.91,-0.09,1.03,1.04
6:8:55:32:18586,99.26,-28.81,104.94,-0.45,0.89,-0.2,1.02,1.03
6:8:55:33:18985,89.88,-24.93,112.55,-0.4,0.89,0.07,0.98,1.01
6:8:55:33:19082,89.26,-25.91,113.97,-0.45,0.92,-0.03,1.02,1.01
6:8:55:33:19193,88.31,-26.38,115.22,-0.45,0.9,0.04,1.0,1.0
6:8:55:33:19290,87.4,-26.12,116.68,-0.44,0.93,0.03,1.03,1.02
6:8:55:33:19386,88.25,-27.06,117.69,-0.49,0.95,-0.02,1.06,1.03
6:8:55:33:19498,90.64,-27.63,117.66,-0.47,0.9,-0.02,1.02,1.04
6:8:55:33:19593,94.22,-27.55,115.94,-0.45,0.87,-0.04,0.98,1.02
6:8:55:34:19992,93.71,-27.68,113.72,-0.46,0.87,-0.05,0.99,1.0
6:8:55:34:20088,92.95,-28.17,113.95,-0.46,0.9,-0.05,1.01,0.99
6:8:55:34:20201,92.16,-28.61,115.17,-0.48,0.9,-0.01,1.02,1.01
6:8:55:34:20280,94.57,-28.18,114.97,-0.48,0.86,-0.05,0.98,1.0
6:8:55:34:20392,96.72,-28.34,112.97,-0.49,0.84,-0.12,0.98,0.99
6:8:55:34:20489,97.02,-27.42,112.81,-0.49,0.88,-0.09,1.01,0.99
6:8:55:34:20584,97.22,-26.99,113.15,-0.48,0.91,-0.11,1.04,1.01
6:8:55:35:20996,96.53,-25.88,111.25,-0.46,0.89,-0.09,1.0,1.02
6:8:55:35:21093,96.03,-25.1,110.81,-0.44,0.92,-0.09,1.03,1.02
6:8:55:35:21189,96.34,-25.78,110.77,-0.47,0.92,-0.12,1.04,1.02
6:8:55:35:21285,97.16,-26.46,110.08,-0.49,0.88,-0.11,1.01,1.03
6:8:55:35:21396,97.48,-26.24,109.57,-0.42,0.91,-0.12,1.01,1.02
6:8:55:35:21492,97.0,-25.38,109.23,-0.43,0.92,-0.1,1.02,1.02
6:8:55:35:21589,97.38,-25.37,109.25,-0.44,0.91,-0.12,1.02,1.02
6:8:55:36:21980,99.55,-25.05,108.41,-0.44,0.92,-0.15,1.03,1.02
6:8:55:36:22092,99.63,-24.85,108.12,-0.43,0.91,-0.15,1.02,1.02
6:8:55:36:22187,99.66,-24.89,107.85,-0.43,0.91,-0.16,1.02,1.02
6:8:55:36:22299,99.48,-24.93,107.53,-0.44,0.9,-0.15,1.01,1.02
6:8:55:36:22395,99.29,-24.9,107.28,-0.44,0.91,-0.14,1.02,1.02
6:8:55:36:22491,99.12,-24.78,106.81,-0.42,0.91,-0.13,1.01,1.02
6:8:55:36:22588,99.05,-24.88,106.43,-0.43,0.92,-0.14,1.02,1.02
6:8:55:37:22994,98.9,-24.95,105.09,-0.43,0.91,-0.13,1.01,1.02
6:8:55:37:23090,98.83,-24.96,104.9,-0.43,0.92,-0.14,1.03,1.02
6:8:55:37:23186,98.86,-25.05,104.74,-0.44,0.91,-0.15,1.02,1.02
6:8:55:37:23298,98.88,-25.1,104.66,-0.44,0.91,-0.14,1.02,1.02
6:8:55:37:23393,98.65,-24.89,104.69,-0.43,0.92,-0.14,1.03,1.02
6:8:55:37:23490,98.5,-24.86,104.7,-0.43,0.92,-0.14,1.03,1.02
6:8:55:37:23585,98.54,-24.9,104.72,-0.43,0.91,-0.14,1.01,1.02
6:8:55:38:23995,98.54,-24.86,105.25,-0.44,0.91,-0.14,1.02,1.02
6:8:55:38:24090,98.33,-24.75,105.41,-0.43,0.91,-0.12,1.01,1.02
6:8:55:38:24186,98.49,-24.78,105.47,-0.43,0.92,-0.14,1.02,1.02
6:8:55:38:24266,98.59,-24.73,105.34,-0.42,0.91,-0.13,1.02,1.02
6:8:55:38:24395,99.46,-25.21,104.88,-0.46,0.91,-0.17,1.04,1.02
6:8:55:38:24491,99.38,-25.24,104.87,-0.44,0.91,-0.14,1.02,1.02
6:8:55:38:24571,98.96,-24.9,104.91,-0.42,0.91,-0.13,1.02,1.02
6:8:55:39:24981,99.01,-24.99,104.26,-0.42,0.9,-0.14,1.0,1.01
6:8:55:39:25093,98.8,-24.92,104.36,-0.43,0.92,-0.14,1.02,1.01
6:8:55:39:25189,98.78,-24.85,104.29,-0.43,0.92,-0.14,1.03,1.02
6:8:55:39:25285,98.72,-24.87,104.45,-0.42,0.91,-0.14,1.01,1.02
6:8:55:39:25382,98.78,-24.8,104.46,-0.43,0.91,-0.14,1.02,1.02
6:8:55:39:25493,98.84,-24.78,104.51,-0.42,0.91,-0.13,1.01,1.01
6:8:55:39:25573,98.97,-24.88,104.45,-0.44,0.91,-0.15,1.02,1.02
6:8:55:40:25987,98.68,-24.79,104.96,-0.43,0.92,-0.14,1.02,1.02
6:8:55:40:26083,98.63,-24.63,105.14,-0.42,0.92,-0.14,1.03,1.02
6:8:55:40:26210,98.52,-24.58,105.19,-0.42,0.92,-0.14,1.02,1.02
6:8:55:40:26290,98.61,-24.67,105.17,-0.43,0.91,-0.14,1.02,1.02
6:8:55:40:26387,98.63,-24.61,105.28,-0.43,0.91,-0.14,1.02,1.02
6:8:55:40:26483,98.66,-24.59,105.3,-0.43,0.93,-0.14,1.03,1.02
6:8:55:40:26578,98.63,-24.68,105.31,-0.42,0.92,-0.14,1.02,1.02
6:8:55:41:26973,98.62,-24.74,105.48,-0.42,0.92,-0.13,1.02,1.02
6:8:55:41:27085,98.48,-24.63,105.4,-0.43,0.91,-0.14,1.01,1.02
6:8:55:41:27212,98.4,-24.68,106.15,-0.42,0.92,-0.14,1.02,1.02
6:8:55:41:27292,98.3,-24.72,106.96,-0.43,0.91,-0.14,1.02,1.02
6:8:55:41:27389,98.16,-24.71,107.66,-0.42,0.91,-0.13,1.01,1.01
6:8:55:41:27484,98.05,-24.72,108.42,-0.43,0.91,-0.13,1.02,1.01
6:8:55:41:27580,97.95,-24.65,109.13,-0.43,0.92,-0.13,1.02,1.01
6:8:55:42:27995,98.32,-24.87,111.25,-0.43,0.94,-0.15,1.04,1.03
6:8:55:42:28076,98.03,-24.38,111.94,-0.43,0.87,-0.11,0.98,1.01
6:8:55:42:28173,98.23,-24.32,112.07,-0.44,0.94,-0.14,1.04,1.02
6:8:55:42:28268,98.12,-24.22,112.5,-0.4,0.91,-0.12,1.0,1.01
6:8:55:42:28364,98.1,-24.1,112.43,-0.41,0.92,-0.14,1.02,1.02
6:8:55:42:28491,98.2,-24.1,112.51,-0.42,0.92,-0.13,1.02,1.01
6:8:55:42:28572,98.2,-24.01,112.69,-0.41,0.93,-0.14,1.03,1.02
6:8:55:43:28994,97.61,-23.82,113.25,-0.41,0.92,-0.13,1.01,1.02
6:8:55:43:29073,97.38,-23.63,113.28,-0.4,0.93,-0.13,1.02,1.02
6:8:55:43:29170,96.34,-22.94,113.29,-0.4,0.92,-0.08,1.01,1.01
6:8:55:43:29281,96.03,-22.62,113.41,-0.38,0.94,-0.1,1.02,1.02
6:8:55:43:29378,96.35,-22.75,113.32,-0.42,0.92,-0.14,1.02,1.02
6:8:55:43:29473,95.14,-21.83,113.6,-0.36,0.93,-0.07,1.0,1.01
6:8:55:43:29586,95.25,-21.78,113.94,-0.38,0.95,-0.09,1.03,1.02
6:8:55:44:29969,95.28,-21.67,114.12,-0.38,0.95,-0.09,1.02,1.02
6:8:55:44:30096,95.27,-21.59,114.11,-0.38,0.94,-0.07,1.01,1.02
6:8:55:44:30176,95.37,-21.68,114.08,-0.37,0.94,-0.08,1.01,1.02
6:8:55:44:30272,95.47,-21.76,114.05,-0.38,0.93,-0.1,1.01,1.01
6:8:55:44:30383,95.38,-21.65,114.03,-0.37,0.94,-0.09,1.02,1.01
6:8:55:44:30480,95.43,-21.65,114.07,-0.38,0.94,-0.09,1.02,1.02
6:8:55:44:30576,95.42,-21.67,114.21,-0.37,0.95,-0.09,1.03,1.02
6:8:55:45:30974,93.97,-20.5,113.89,-0.34,0.99,-0.09,1.05,1.03
6:8:55:45:31086,94.0,-20.71,113.16,-0.35,0.98,-0.07,1.04,1.04
6:8:55:45:31181,94.02,-20.93,112.78,-0.36,0.92,-0.05,0.99,1.03
6:8:55:45:31294,94.48,-21.31,112.68,-0.35,0.94,-0.09,1.0,1.01
6:8:55:45:31373,96.16,-21.83,112.35,-0.38,0.95,-0.12,1.03,1.01
6:8:55:45:31470,94.98,-20.95,112.28,-0.38,0.98,-0.06,1.06,1.03
6:8:55:45:31581,94.09,-20.47,112.52,-0.36,0.95,-0.06,1.02,1.04
6:8:55:46:32232,93.8,-21.16,112.48,-0.38,0.96,-0.06,1.03,1.04
6:8:55:46:32235,94.5,-21.51,112.23,-0.38,0.93,-0.08,1.01,1.02
6:8:55:46:32237,94.05,-21.23,112.05,-0.38,0.95,-0.07,1.03,1.02
6:8:55:46:32284,93.15,-20.6,111.87,-0.36,0.96,-0.04,1.03,1.02
6:8:55:46:32396,93.06,-20.43,111.83,-0.35,0.96,-0.05,1.03,1.03
6:8:55:46:32492,93.25,-20.74,111.74,-0.36,0.94,-0.05,1.01,1.02
6:8:55:46:32588,93.32,-20.77,111.67,-0.36,0.95,-0.05,1.01,1.02
6:8:55:47:32982,93.77,-20.91,111.79,-0.35,0.95,-0.07,1.01,1.01
6:8:55:47:33078,93.76,-20.8,111.98,-0.35,0.95,-0.05,1.02,1.02
6:8:55:47:33190,93.67,-20.73,111.98,-0.37,0.95,-0.05,1.02,1.02
6:8:55:47:33286,93.65,-20.87,112.16,-0.37,0.95,-0.06,1.02,1.02
6:8:55:47:33382,93.55,-20.73,112.32,-0.36,0.96,-0.06,1.02,1.02
6:8:55:47:33478,93.58,-20.56,112.7,-0.37,0.96,-0.06,1.03,1.02
6:8:55:47:33575,93.64,-20.61,113.17,-0.36,0.95,-0.06,1.02,1.02
6:8:55:48:33990,92.83,-21.63,114.67,-0.38,0.95,-0.06,1.03,1.03
6:8:55:48:34087,92.22,-21.04,114.38,-0.36,0.96,-0.03,1.02,1.02
6:8:55:48:34183,91.99,-20.96,114.14,-0.37,0.95,-0.03,1.02,1.02
6:8:55:48:34278,92.29,-20.94,113.58,-0.36,0.94,-0.05,1.01,1.02
6:8:55:48:34390,92.48,-20.88,113.01,-0.38,0.96,-0.03,1.03,1.02
6:8:55:48:34486,92.39,-20.6,112.73,-0.36,0.97,-0.03,1.03,1.02
6:8:55:48:34581,91.93,-20.54,112.32,-0.36,0.96,-0.04,1.03,1.03
6:8:55:49:34997,91.97,-20.5,111.13,-0.35,0.95,-0.03,1.02,1.03
6:8:55:49:35078,91.73,-20.43,111.05,-0.35,0.92,-0.03,0.98,1.01
6:8:55:49:35174,91.54,-20.23,110.51,-0.34,0.95,-0.03,1.01,1.0
6:8:55:49:35270,91.35,-20.08,110.41,-0.34,0.95,-0.03,1.01,1.0
6:8:55:49:35366,91.23,-20.12,110.47,-0.35,0.94,-0.01,1.0,1.01
6:8:55:49:35493,91.38,-20.08,110.63,-0.35,0.95,-0.03,1.01,1.01
6:8:55:49:35589,91.54,-20.04,110.66,-0.35,0.95,-0.02,1.01,1.01
6:8:55:50:35994,90.77,-18.71,109.81,-0.33,0.96,0.0,1.01,1.01
6:8:55:50:36090,90.7,-18.34,109.6,-0.32,0.98,-0.01,1.03,1.02
6:8:55:50:36202,90.88,-18.25,109.31,-0.32,0.95,-0.01,1.0,1.02
6:8:55:50:36267,90.56,-17.94,108.92,-0.31,0.96,-0.0,1.0,1.01
6:8:55:50:36378,89.9,-17.34,108.58,-0.31,0.98,0.01,1.03,1.01
6:8:55:50:36475,89.9,-16.98,108.5,-0.28,0.99,-0.0,1.03,1.02
6:8:55:50:36586,90.11,-17.29,108.51,-0.31,0.95,-0.0,1.0,1.02
6:8:55:51:36992,89.61,-16.7,109.05,-0.3,1.01,0.01,1.05,1.03
6:8:55:51:37089,89.97,-16.77,108.8,-0.29,0.99,-0.0,1.03,1.03
6:8:55:51:37185,90.07,-17.13,108.75,-0.31,0.94,0.01,0.99,1.03
6:8:55:51:37280,90.27,-17.29,108.67,-0.3,0.97,-0.0,1.02,1.01
6:8:55:51:37391,90.51,-17.01,108.32,-0.3,0.98,-0.01,1.03,1.01
6:8:55:51:37488,90.54,-16.91,108.54,-0.3,0.98,-0.01,1.03,1.02
6:8:55:51:37585,90.64,-16.89,108.72,-0.3,0.98,-0.01,1.02,1.03
6:8:55:52:37978,91.84,-17.01,109.04,-0.31,0.98,-0.03,1.03,1.03
6:8:55:52:38074,92.39,-17.0,108.75,-0.3,0.96,-0.04,1.01,1.02
6:8:55:52:38169,92.26,-17.21,109.15,-0.29,0.95,-0.04,1.0,1.01
6:8:55:52:38266,91.75,-17.03,109.26,-0.3,0.98,-0.02,1.03,1.01
6:8:55:52:38393,90.7,-16.51,109.24,-0.29,0.97,-0.02,1.02,1.01
6:8:55:52:38490,90.23,-16.67,109.53,-0.3,0.97,0.02,1.01,1.02
6:8:55:52:38585,90.63,-16.47,109.85,-0.28,0.96,-0.02,1.0,1.01
6:8:55:53:38984,90.83,-15.07,106.74,-0.26,1.0,-0.02,1.03,1.01
6:8:55:53:39079,91.37,-15.02,106.16,-0.27,0.98,-0.03,1.01,1.02
6:8:55:53:39191,91.88,-15.01,105.39,-0.25,0.98,-0.03,1.02,1.02
6:8:55:53:39287,92.32,-15.0,104.95,-0.26,0.97,-0.04,1.01,1.01
6:8:55:53:39384,92.59,-15.0,104.39,-0.27,0.97,-0.04,1.01,1.01
6:8:55:53:39496,92.79,-14.84,104.08,-0.25,0.98,-0.06,1.01,1.01
6:8:55:53:39575,93.02,-14.51,103.71,-0.26,0.98,-0.05,1.02,1.01
6:8:55:54:39991,91.65,-12.69,100.86,-0.22,1.02,-0.02,1.04,1.02
6:8:55:54:40087,91.7,-12.79,100.7,-0.23,0.99,-0.02,1.02,1.03
6:8:55:54:40184,91.52,-13.0,100.49,-0.24,0.99,-0.02,1.02,1.03
6:8:55:54:40278,91.86,-13.19,100.03,-0.23,0.99,-0.03,1.02,1.02
6:8:55:54:40375,91.99,-13.17,99.86,-0.22,0.97,-0.02,0.99,1.01
6:8:55:54:40486,91.98,-13.04,99.94,-0.23,0.99,-0.03,1.02,1.01
6:8:55:54:40583,92.2,-13.11,100.06,-0.24,1.0,-0.03,1.03,1.01
6:8:55:55:40966,92.25,-13.4,100.85,-0.25,0.98,-0.06,1.02,1.02
6:8:55:55:41078,90.87,-12.89,100.77,-0.22,1.0,0.0,1.03,1.02
6:8:55:55:41175,90.7,-12.66,100.89,-0.22,1.0,-0.02,1.02,1.02
6:8:55:55:41271,90.7,-12.68,101.12,-0.22,0.97,-0.02,1.0,1.02
6:8:55:55:41399,90.68,-12.61,101.28,-0.21,0.98,-0.01,1.01,1.01
6:8:55:55:41495,90.82,-12.58,101.38,-0.22,0.99,-0.02,1.02,1.01
6:8:55:55:41590,90.75,-12.5,101.64,-0.22,1.0,-0.02,1.03,1.02
6:8:55:56:41998,90.39,-12.22,101.77,-0.21,0.98,0.0,1.0,1.02
6:8:55:56:42094,90.6,-12.17,101.85,-0.21,1.0,-0.01,1.03,1.02
6:8:55:56:42174,90.59,-11.96,101.82,-0.21,1.0,-0.0,1.02,1.02
6:8:55:56:42270,90.86,-12.11,101.87,-0.22,0.99,-0.02,1.02,1.02
6:8:55:56:42382,90.89,-12.2,101.89,-0.22,0.99,-0.02,1.01,1.02
6:8:55:56:42477,90.86,-12.2,101.94,-0.21,0.98,0.0,1.01,1.01
6:8:55:56:42573,91.19,-12.12,101.64,-0.21,0.96,-0.01,0.99,1.0
6:8:55:57:42979,91.09,-12.05,101.18,-0.21,0.99,-0.01,1.01,1.0
6:8:55:57:43091,90.97,-11.87,101.13,-0.21,1.0,-0.01,1.02,1.01
6:8:55:57:43187,90.89,-11.75,101.16,-0.21,0.99,-0.02,1.02,1.02
6:8:55:57:43283,90.85,-11.65,101.21,-0.21,0.99,-0.01,1.01,1.02
6:8:55:57:43380,90.85,-11.59,101.17,-0.2,0.99,-0.01,1.01,1.01
6:8:55:57:43475,90.84,-11.59,101.13,-0.2,0.98,-0.01,1.0,1.01
6:8:55:57:43572,90.68,-11.65,101.07,-0.2,0.99,-0.01,1.01,1.01
6:8:55:58:43987,90.79,-11.44,100.95,-0.19,0.99,-0.02,1.01,1.01
6:8:55:58:44084,91.08,-11.24,100.17,-0.19,0.96,-0.03,0.98,1.0
6:8:55:58:44179,91.48,-11.05,99.97,-0.2,0.98,-0.04,1.0,1.0
6:8:55:58:44275,91.28,-10.8,99.78,-0.19,1.0,-0.03,1.02,1.0
6:8:55:58:44371,91.31,-10.85,99.62,-0.2,1.0,-0.02,1.02,1.01
6:8:55:58:44467,91.46,-10.93,99.49,-0.2,1.0,-0.02,1.02,1.02
6:8:55:58:44579,91.27,-10.93,99.42,-0.18,0.98,-0.01,1.0,1.01
6:8:55:59:44973,91.59,-10.85,99.52,-0.19,1.0,-0.02,1.01,1.01
6:8:55:59:45084,91.46,-10.88,99.32,-0.19,1.0,-0.0,1.01,1.01
6:8:55:59:45181,91.17,-10.85,99.33,-0.2,1.0,-0.03,1.02,1.02
6:8:55:59:45276,91.12,-10.79,99.25,-0.19,1.0,-0.02,1.01,1.02
6:8:55:59:45373,91.18,-10.76,98.98,-0.19,0.99,-0.03,1.01,1.02
6:8:55:59:45485,91.24,-10.73,98.85,-0.19,1.0,-0.02,1.02,1.01
6:8:55:59:45582,91.26,-10.74,98.65,-0.19,0.99,0.0,1.01,1.01
6:8:56:0:45986,91.0,-10.69,98.65,-0.19,1.0,-0.03,1.02,1.01
6:8:56:0:46082,90.81,-10.67,98.56,-0.19,1.0,-0.02,1.02,1.01
6:8:56:0:46179,90.59,-10.66,98.59,-0.19,0.99,-0.0,1.01,1.02
6:8:56:0:46275,90.67,-10.71,98.58,-0.19,0.99,-0.01,1.01,1.01
6:8:56:0:46392,90.7,-10.69,98.63,-0.19,1.0,-0.0,1.02,1.01
6:8:56:0:46488,90.75,-10.65,98.7,-0.19,0.99,-0.01,1.0,1.01
6:8:56:0:46569,90.82,-10.66,98.75,-0.19,1.0,-0.01,1.01,1.01
6:8:56:1:46995,90.75,-10.68,98.67,-0.18,1.0,-0.0,1.02,1.01
6:8:56:1:47090,90.68,-10.76,98.68,-0.2,0.99,-0.02,1.01,1.01
6:8:56:1:47186,90.64,-10.75,98.68,-0.19,1.0,-0.03,1.02,1.02
6:8:56:1:47282,90.6,-10.82,98.72,-0.19,1.0,-0.01,1.02,1.01
6:8:56:1:47393,90.46,-10.73,98.72,-0.18,0.99,-0.01,1.01,1.01
6:8:56:1:47490,90.39,-10.63,98.41,-0.19,0.98,-0.01,1.0,1.01
6:8:56:1:47585,90.47,-10.56,98.17,-0.18,0.99,0.0,1.01,1.0
6:8:56:2:47974,90.5,-10.57,98.13,-0.18,1.0,-0.01,1.01,1.01
6:8:56:2:48070,90.63,-10.63,98.2,-0.18,0.99,0.0,1.01,1.01
6:8:56:2:48183,90.71,-10.64,98.29,-0.19,1.0,-0.01,1.02,1.01
6:8:56:2:48278,90.74,-10.72,98.09,-0.2,1.03,-0.02,1.05,1.02
6:8:56:2:48374,90.58,-10.75,97.92,-0.19,1.0,-0.01,1.02,1.03
6:8:56:2:48486,90.58,-10.78,97.83,-0.19,0.98,-0.03,1.0,1.02
6:8:56:2:48583,90.67,-10.9,97.83,-0.19,0.98,-0.01,1.0,1.01
6:8:56:3:48974,91.32,-11.19,97.86,-0.18,0.99,-0.02,1.01,1.0
6:8:56:3:49070,91.38,-11.17,98.04,-0.19,1.0,-0.02,1.02,1.01
6:8:56:3:49167,91.41,-11.28,97.98,-0.2,1.0,-0.02,1.02,1.01
6:8:56:3:49278,91.53,-11.36,98.0,-0.21,0.99,-0.04,1.02,1.02
6:8:56:3:49390,91.75,-11.47,97.98,-0.19,1.0,-0.03,1.02,1.02
6:8:56:3:49487,92.26,-11.68,97.9,-0.22,1.0,-0.03,1.03,1.02
6:8:56:3:49583,92.37,-11.74,98.04,-0.21,0.98,-0.02,1.0,1.02
6:8:56:4:49982,92.24,-11.86,98.68,-0.2,0.99,-0.04,1.01,1.01
6:8:56:4:50077,92.06,-11.75,98.91,-0.2,0.99,-0.05,1.01,1.01
6:8:56:4:50190,91.99,-11.58,98.92,-0.21,0.99,-0.03,1.01,1.01
6:8:56:4:50286,91.7,-11.56,98.84,-0.2,1.01,-0.03,1.03,1.02
6:8:56:4:50382,91.52,-11.58,99.07,-0.2,0.99,-0.02,1.01,1.02
6:8:56:4:50477,91.39,-11.76,99.37,-0.21,0.99,-0.03,1.01,1.02
6:8:56:4:50603,91.22,-11.66,99.56,-0.21,0.99,-0.01,1.01,1.01
6:8:56:5:50988,92.03,-11.7,99.61,-0.21,0.98,-0.01,1.01,1.01
6:8:56:5:51083,92.02,-11.71,99.54,-0.2,0.99,-0.03,1.01,1.01
6:8:56:5:51180,92.12,-11.67,99.63,-0.2,1.0,-0.03,1.02,1.01
6:8:56:5:51275,92.18,-11.61,99.54,-0.21,0.99,-0.03,1.02,1.02
6:8:56:5:51371,92.41,-11.61,99.59,-0.19,0.99,-0.04,1.01,1.01
6:8:56:5:51483,92.41,-11.63,99.41,-0.21,0.99,-0.04,1.02,1.01
6:8:56:5:51579,92.34,-11.71,99.29,-0.21,1.0,-0.04,1.02,1.02
6:8:56:6:51986,91.43,-12.08,99.2,-0.22,0.99,-0.03,1.01,1.02
6:8:56:6:52082,91.28,-11.95,99.26,-0.21,0.99,-0.03,1.01,1.02
6:8:56:6:52179,91.38,-12.18,99.29,-0.22,0.98,-0.02,1.0,1.01
6:8:56:6:52274,91.27,-12.14,99.36,-0.21,1.0,-0.02,1.02,1.01
6:8:56:6:52370,91.27,-12.29,99.61,-0.2,0.98,-0.01,1.0,1.01
6:8:56:6:52499,91.56,-12.29,99.64,-0.22,0.98,-0.02,1.0,1.01
6:8:56:6:52579,92.3,-12.41,99.78,-0.23,1.01,-0.03,1.04,1.01
6:8:56:7:52995,99.21,-16.1,97.83,-0.29,0.89,-0.17,0.95,1.0
6:8:56:7:53091,102.88,-17.63,98.0,-0.31,0.89,-0.13,0.95,0.98
6:8:56:7:53186,109.49,-19.28,97.01,-0.37,0.96,-0.33,1.08,0.99
6:8:56:7:53282,112.51,-19.56,96.13,-0.31,0.89,-0.38,1.02,1.01
6:8:56:7:53380,116.33,-21.04,95.33,-0.31,0.91,-0.45,1.07,1.05
6:8:56:7:53475,118.18,-22.58,94.84,-0.4,0.85,-0.49,1.06,1.05
6:8:56:7:53570,119.78,-21.32,94.32,-0.3,0.81,-0.53,1.01,1.05
6:8:56:8:53978,117.04,-15.16,94.37,-0.23,0.9,-0.4,1.01,1.03
6:8:56:8:54075,118.71,-14.89,94.37,-0.33,1.08,-0.45,1.21,1.08
6:8:56:8:54186,117.67,-13.85,95.04,-0.19,0.89,-0.48,1.03,1.08
6:8:56:8:54282,115.56,-13.64,95.42,-0.2,0.92,-0.39,1.02,1.09
6:8:56:8:54379,114.18,-13.92,95.32,-0.27,0.9,-0.4,1.02,1.02
6:8:56:8:54473,113.35,-13.73,96.06,-0.17,0.95,-0.42,1.05,1.03
6:8:56:8:54585,112.11,-13.76,96.45,-0.24,0.92,-0.38,1.02,1.03
6:8:56:9:54995,109.73,-14.74,98.72,-0.25,0.93,-0.37,1.03,1.03
6:8:56:9:55075,110.28,-14.08,99.12,-0.21,0.95,-0.38,1.05,1.03
6:8:56:9:55187,109.91,-12.96,98.83,-0.23,0.93,-0.32,1.01,1.03
6:8:56:9:55268,109.52,-12.84,98.8,-0.25,0.9,-0.4,1.02,1.03
6:8:56:9:55396,108.76,-12.27,99.18,-0.13,0.97,-0.29,1.02,1.02
6:8:56:9:55491,107.74,-11.79,98.68,-0.27,0.96,-0.32,1.05,1.03
6:8:56:9:55587,106.23,-11.94,99.59,-0.19,0.93,-0.32,1.0,1.03
6:8:56:10:55977,95.1,-7.38,102.97,-0.11,0.97,-0.1,0.98,1.01
6:8:56:10:56088,92.59,-7.92,104.7,-0.09,0.98,-0.1,0.99,0.99
6:8:56:10:56184,92.05,-9.78,104.86,-0.17,1.05,-0.07,1.06,1.01
6:8:56:10:56280,91.83,-12.03,106.33,-0.2,1.0,0.02,1.02,1.02
6:8:56:10:56376,92.75,-10.22,109.39,-0.11,0.94,-0.12,0.95,1.01
6:8:56:10:56472,95.4,-11.61,109.23,-0.38,0.87,-0.08,0.95,0.97
6:8:56:10:56584,97.08,-11.62,111.48,-0.16,0.96,-0.11,0.98,0.96
6:8:56:11:56980,97.59,-12.05,117.2,-0.19,1.03,-0.14,1.05,1.0
6:8:56:11:57077,97.59,-11.65,117.26,-0.19,0.99,-0.17,1.03,1.02
6:8:56:11:57173,98.38,-12.73,116.67,-0.25,0.97,-0.13,1.01,1.03
6:8:56:11:57269,98.39,-13.31,116.65,-0.2,1.02,-0.13,1.05,1.03
6:8:56:11:57380,98.62,-14.06,117.09,-0.32,1.19,-0.06,1.23,1.1
6:8:56:11:57477,97.95,-14.0,117.74,-0.24,0.98,-0.14,1.02,1.1
6:8:56:11:57589,97.24,-13.83,117.92,-0.21,1.01,-0.11,1.04,1.1
6:8:56:12:58004,96.18,-16.14,122.88,-0.28,1.01,-0.15,1.06,1.04
6:8:56:12:58084,97.02,-15.61,123.68,-0.33,0.98,-0.19,1.05,1.05
6:8:56:12:58180,96.83,-14.85,124.51,-0.22,1.03,-0.18,1.07,1.06
6:8:56:12:58277,96.76,-15.12,124.01,-0.25,0.97,-0.09,1.01,1.04
6:8:56:12:58372,97.65,-15.88,124.61,-0.27,0.93,-0.14,0.97,1.02
6:8:56:12:58468,99.14,-15.94,125.23,-0.3,1.0,-0.17,1.05,1.01
6:8:56:12:58596,100.0,-16.3,125.51,-0.28,0.97,-0.16,1.02,1.02
6:8:56:13:58974,106.01,-19.95,127.53,-0.3,1.05,-0.3,1.13,1.07
6:8:56:13:59069,104.62,-20.62,127.37,-0.38,0.87,-0.26,0.99,1.05
6:8:56:13:59182,103.81,-18.74,127.08,-0.3,0.88,-0.18,0.94,1.02
6:8:56:13:59278,107.47,-18.77,125.31,-0.36,1.02,-0.3,1.13,1.02
6:8:56:13:59374,110.58,-17.78,123.29,-0.27,0.89,-0.31,0.98,1.02
6:8:56:13:59486,115.55,-16.29,121.63,-0.19,0.81,-0.31,0.89,1.0
6:8:56:13:59582,122.16,-15.5,119.34,-0.3,0.74,-0.47,0.93,0.93
6:8:56:14:59966,119.21,-12.66,112.73,-0.28,0.85,-0.46,1.0,0.94
6:8:56:14:60077,121.1,-12.76,110.98,-0.25,0.81,-0.47,0.97,0.97
6:8:56:14:60189,124.8,-13.01,109.34,-0.35,0.69,-0.55,0.95,0.97
6:8:56:14:60286,126.16,-13.5,108.09,-0.26,0.81,-0.57,1.03,0.98
6:8:56:14:60397,126.04,-13.49,107.45,-0.29,0.85,-0.55,1.05,1.01
6:8:56:14:60493,126.26,-13.85,106.54,-0.3,0.78,-0.63,1.05,1.04
6:8:56:14:60589,122.94,-13.49,106.05,-0.35,0.91,-0.55,1.11,1.07
6:8:56:15:60988,123.21,-13.26,100.86,-0.32,0.88,-0.55,1.08,1.08
6:8:56:15:61083,123.11,-13.26,100.15,-0.26,0.88,-0.54,1.07,1.09
6:8:56:15:61178,122.59,-13.69,99.97,-0.25,0.82,-0.5,0.99,1.05
6:8:56:15:61276,121.31,-14.82,100.02,-0.34,0.89,-0.51,1.08,1.05
6:8:56:15:61370,119.78,-14.94,100.28,-0.26,0.86,-0.46,1.0,1.03
6:8:56:15:61468,118.93,-15.27,100.56,-0.29,0.89,-0.45,1.04,1.04
6:8:56:15:61578,119.98,-16.4,99.61,-0.28,0.81,-0.48,0.99,1.01
6:8:56:16:61979,127.79,-20.72,98.23,-0.35,0.73,-0.52,0.97,1.0
6:8:56:16:62075,131.6,-21.5,99.84,-0.24,0.7,-0.54,0.92,0.96
6:8:56:16:62186,134.01,-25.07,100.9,-0.42,0.75,-0.73,1.13,1.0
6:8:56:16:62282,136.72,-28.76,99.83,-0.53,0.66,-0.76,1.14,1.06
6:8:56:16:62378,138.11,-28.94,97.06,-0.53,0.7,-0.77,1.17,1.15
6:8:56:16:62475,139.4,-27.28,92.59,-0.4,0.66,-0.74,1.07,1.13
6:8:56:16:62571,140.41,-25.6,87.42,-0.35,0.57,-0.73,0.99,1.08
6:8:56:17:62981,140.3,-27.53,71.39,-0.41,0.62,-0.75,1.06,1.04
6:8:56:17:63076,142.1,-27.2,67.21,-0.42,0.55,-0.76,1.03,1.03
6:8:56:17:63172,142.82,-26.92,63.63,-0.42,0.55,-0.75,1.02,1.04
6:8:56:17:63283,142.14,-27.62,61.43,-0.4,0.63,-0.69,1.02,1.02
6:8:56:17:63381,141.54,-28.87,60.03,-0.42,0.64,-0.69,1.02,1.02
6:8:56:17:63476,142.05,-30.09,58.76,-0.43,0.58,-0.7,1.0,1.02
6:8:56:17:63572,142.94,-31.27,57.31,-0.42,0.56,-0.71,1.0,1.01
6:8:56:18:63976,141.91,-36.52,59.42,-0.44,0.6,-0.7,1.02,1.01
6:8:56:18:64073,141.27,-36.73,61.32,-0.43,0.63,-0.7,1.03,1.02
6:8:56:18:64184,140.94,-37.08,63.27,-0.44,0.61,-0.68,1.01,1.02
6:8:56:18:64265,140.81,-37.42,65.39,-0.46,0.59,-0.73,1.04,1.03
6:8:56:18:64376,140.68,-37.15,67.43,-0.44,0.61,-0.72,1.04,1.03
6:8:56:18:64473,140.08,-36.99,69.73,-0.41,0.61,-0.71,1.02,1.03
6:8:56:18:64585,139.92,-36.59,71.4,-0.41,0.58,-0.69,0.99,1.02
6:8:56:19:64974,137.45,-36.51,77.93,-0.42,0.62,-0.67,1.0,1.01
6:8:56:19:65085,136.19,-36.24,79.88,-0.43,0.68,-0.64,1.03,1.01
6:8:56:19:65181,135.52,-37.08,81.85,-0.47,0.64,-0.68,1.04,1.02
6:8:56:19:65277,135.0,-37.52,83.65,-0.44,0.63,-0.65,1.01,1.03
6:8:56:19:65374,134.43,-36.53,85.42,-0.46,0.65,-0.67,1.04,1.03
6:8:56:19:65485,134.13,-35.97,86.99,-0.44,0.67,-0.63,1.03,1.02
6:8:56:19:65581,133.87,-35.75,89.04,-0.47,0.62,-0.65,1.01,1.03
6:8:56:20:65981,133.21,-33.35,95.38,-0.47,0.65,-0.67,1.04,1.03
6:8:56:20:66092,132.18,-33.16,96.72,-0.48,0.7,-0.63,1.06,1.04
6:8:56:20:66189,131.15,-32.61,98.28,-0.44,0.7,-0.62,1.03,1.04
6:8:56:20:66284,130.9,-32.32,99.48,-0.45,0.67,-0.61,1.01,1.03
6:8:56:20:66381,130.86,-32.31,100.72,-0.46,0.69,-0.63,1.04,1.03
6:8:56:20:66477,131.24,-31.89,101.58,-0.45,0.67,-0.62,1.02,1.03
6:8:56:20:66573,131.46,-31.3,102.49,-0.44,0.68,-0.63,1.02,1.03
6:8:56:21:66986,131.02,-30.58,106.77,-0.48,0.69,-0.61,1.04,1.03
6:8:56:21:67082,131.24,-30.55,107.36,-0.46,0.68,-0.64,1.05,1.04
6:8:56:21:67178,131.56,-30.54,107.74,-0.45,0.7,-0.62,1.04,1.04
6:8:56:21:67275,131.49,-29.89,108.57,-0.45,0.67,-0.64,1.03,1.04
6:8:56:21:67386,130.77,-29.92,109.46,-0.47,0.69,-0.61,1.03,1.03
6:8:56:21:67482,130.16,-29.82,110.24,-0.49,0.73,-0.62,1.07,1.04
6:8:56:21:67608,130.38,-29.29,110.67,-0.43,0.67,-0.58,0.99,1.03
6:8:56:22:67983,129.57,-28.86,113.36,-0.46,0.7,-0.63,1.05,1.04
6:8:56:22:68080,129.89,-28.55,113.55,-0.47,0.69,-0.6,1.03,1.02
6:8:56:22:68176,130.61,-28.4,113.64,-0.44,0.68,-0.6,1.01,1.03
6:8:56:22:68287,130.58,-28.14,114.05,-0.44,0.71,-0.59,1.03,1.02
6:8:56:22:68383,130.25,-27.97,114.63,-0.43,0.71,-0.6,1.03,1.02
6:8:56:22:68479,130.02,-27.79,115.32,-0.45,0.69,-0.61,1.02,1.02
6:8:56:22:68575,130.55,-28.16,115.65,-0.45,0.67,-0.59,1.0,1.02
6:8:56:23:68974,129.29,-28.83,120.36,-0.55,0.65,-0.54,1.01,1.01
6:8:56:23:69085,129.88,-29.58,123.24,-0.57,0.67,-0.56,1.05,1.02
6:8:56:23:69181,130.4,-28.95,127.27,-0.53,0.68,-0.57,1.03,1.03
6:8:56:23:69277,131.4,-28.71,131.85,-0.5,0.62,-0.58,0.99,1.02
6:8:56:23:69373,131.68,-28.47,137.0,-0.52,0.66,-0.64,1.06,1.03
6:8:56:23:69486,131.64,-27.76,142.14,-0.5,0.66,-0.65,1.05,1.03
6:8:56:23:69597,131.8,-26.06,146.27,-0.41,0.62,-0.6,0.96,1.02
6:8:56:24:69980,138.63,-26.28,164.43,-0.52,0.65,-0.56,1.0,1.0
6:8:56:24:70076,143.03,-27.44,164.87,-0.6,0.69,-0.61,1.09,1.02
6:8:56:24:70188,148.38,-28.51,163.75,-0.71,0.6,-0.64,1.13,1.07
6:8:56:24:70284,151.54,-31.84,163.76,-0.78,0.44,-0.52,1.03,1.09
6:8:56:24:70380,151.87,-34.4,165.59,-0.77,0.53,-0.46,1.04,1.07
6:8:56:24:70476,149.97,-37.0,168.51,-0.76,0.58,-0.43,1.05,1.04
6:8:56:24:70573,151.98,-38.55,168.27,-0.61,0.59,-0.46,0.97,1.02
6:8:56:25:70976,153.41,-44.1,177.94,-0.69,0.53,-0.48,0.99,1.0
6:8:56:25:71073,153.81,-44.16,179.23,-0.69,0.61,-0.46,1.03,1.0
6:8:56:25:71168,157.55,-44.41,178.67,-0.79,0.57,-0.46,1.07,1.03
6:8:56:25:71280,163.07,-44.32,175.78,-0.84,0.53,-0.44,1.09,1.06
6:8:56:25:71377,167.17,-43.2,172.46,-0.84,0.57,-0.46,1.12,1.09
6:8:56:25:71489,170.41,-41.83,169.06,-0.79,0.55,-0.45,1.06,1.09
6:8:56:25:71585,171.14,-41.68,166.65,-0.81,0.66,-0.45,1.13,1.1
6:8:56:26:71973,173.83,-32.42,153.27,-0.8,0.56,-0.46,1.08,1.09
6:8:56:26:72084,169.33,-29.39,151.05,-0.71,0.6,-0.43,1.03,1.08
6:8:56:26:72181,162.4,-27.37,149.43,-0.63,0.66,-0.41,1.01,1.04
6:8:56:26:72278,155.38,-25.42,147.79,-0.64,0.51,-0.33,0.88,0.97
6:8:56:26:72374,150.98,-21.68,143.85,-0.63,0.57,-0.28,0.89,0.93
6:8:56:26:72485,143.31,-20.3,142.18,-0.73,0.7,-0.26,1.05,0.94
6:8:56:26:72581,139.44,-16.26,137.49,-0.66,0.7,-0.24,0.99,0.98
6:8:56:27:72981,125.31,-11.78,119.32,-0.59,0.79,-0.27,1.02,1.02
6:8:56:27:73077,119.86,-14.26,116.76,-0.64,0.83,-0.28,1.08,1.03
6:8:56:27:73173,116.49,-13.41,115.24,-0.63,0.85,-0.3,1.1,1.07
6:8:56:27:73269,114.23,-15.08,113.85,-0.6,0.76,-0.3,1.02,1.06
6:8:56:27:73380,112.4,-20.27,112.51,-0.62,0.75,-0.31,1.02,1.04
6:8:56:27:73492,111.78,-23.23,111.09,-0.57,0.73,-0.3,0.97,1.0
6:8:56:27:73589,111.73,-24.62,110.0,-0.53,0.78,-0.26,0.98,0.99
6:8:56:28:73973,108.54,-29.59,117.3,-0.56,0.93,-0.17,1.1,1.02
6:8:56:28:74100,109.35,-32.47,117.58,-0.59,0.72,-0.14,0.94,1.01
6:8:56:28:74164,110.2,-32.46,115.74,-0.5,0.7,-0.19,0.88,0.97
6:8:56:28:74292,107.83,-29.18,114.94,-0.62,0.86,-0.29,1.09,0.97
6:8:56:28:74389,106.39,-27.8,113.18,-0.73,0.94,-0.31,1.23,1.07
6:8:56:28:74484,106.11,-29.64,110.11,-0.69,0.93,-0.27,1.19,1.17
6:8:56:28:74596,107.13,-32.19,106.57,-0.54,0.64,-0.23,0.87,1.1
6:8:56:29:74985,109.66,-31.91,107.61,-0.7,0.85,-0.17,1.11,1.06
6:8:56:29:75081,112.5,-34.3,106.52,-0.61,0.71,-0.17,0.95,0.98
6:8:56:29:75193,115.66,-35.76,104.11,-0.58,0.61,-0.26,0.88,0.98
6:8:56:29:75289,112.79,-34.2,104.97,-0.65,0.83,-0.25,1.09,0.97
6:8:56:29:75385,109.01,-33.18,106.16,-0.83,0.9,-0.42,1.3,1.09
6:8:56:29:75496,107.61,-35.13,107.05,-0.84,0.82,-0.26,1.2,1.19
6:8:56:29:75577,107.24,-38.19,106.03,-0.62,0.74,-0.24,0.99,1.16
6:8:56:30:75976,109.67,-39.7,113.48,-0.77,0.69,-0.23,1.06,1.08
6:8:56:30:76075,109.96,-42.95,116.15,-0.72,0.7,-0.25,1.03,1.03
6:8:56:30:76167,111.59,-44.74,117.29,-0.64,0.52,-0.18,0.84,0.98
6:8:56:30:76279,111.21,-44.06,118.3,-0.64,0.66,-0.22,0.94,0.94
6:8:56:30:76392,108.4,-42.46,120.06,-0.79,0.79,-0.29,1.16,0.98
6:8:56:30:76487,106.56,-41.93,121.56,-0.78,0.66,-0.19,1.04,1.05
6:8:56:30:76583,104.36,-42.06,121.63,-0.72,0.93,-0.34,1.22,1.14
6:8:56:31:76983,105.43,-39.97,121.41,-0.76,0.83,-0.21,1.14,1.14
6:8:56:31:77079,106.26,-41.01,122.64,-0.69,0.75,-0.16,1.03,1.13
6:8:56:31:77175,107.47,-43.79,123.78,-0.7,0.68,-0.18,0.99,1.05
6:8:56:31:77271,109.73,-45.97,123.09,-0.66,0.56,-0.14,0.88,0.97
6:8:56:31:77367,108.1,-44.11,123.47,-0.65,0.73,-0.15,0.99,0.95
6:8:56:31:77494,105.26,-40.9,123.73,-0.8,0.81,-0.27,1.17,1.01
6:8:56:31:77591,105.12,-39.98,122.08,-0.77,0.72,-0.2,1.07,1.08
6:8:56:32:77975,105.64,-39.15,120.13,-0.71,0.77,-0.24,1.08,1.11
6:8:56:32:78071,105.79,-39.02,122.16,-0.81,0.81,-0.24,1.16,1.1
6:8:56:32:78166,105.73,-40.65,124.02,-0.73,0.71,-0.2,1.04,1.09
6:8:56:32:78278,106.31,-42.17,125.56,-0.68,0.65,-0.18,0.95,1.05
6:8:56:32:78391,106.65,-41.95,125.98,-0.6,0.66,-0.16,0.91,0.97
6:8:56:32:78471,105.96,-40.43,125.55,-0.56,0.73,-0.14,0.93,0.93
6:8:56:32:78566,103.98,-37.52,125.59,-0.75,0.81,-0.24,1.13,0.99
6:8:56:33:79014,103.28,-37.77,121.53,-0.61,0.65,-0.18,0.91,0.99
6:8:56:33:79094,102.85,-37.09,122.0,-0.7,0.83,-0.2,1.1,1.05
6:8:56:33:79206,103.63,-37.28,122.89,-0.86,0.88,-0.2,1.24,1.08
6:8:56:33:79286,104.97,-40.27,123.03,-0.72,0.74,-0.18,1.05,1.13
6:8:56:33:79366,106.7,-41.12,123.02,-0.64,0.64,-0.1,0.91,1.07
6:8:56:33:79510,108.06,-41.34,122.04,-0.61,0.7,-0.15,0.94,0.97
6:8:56:33:79589,106.32,-39.64,122.7,-0.64,0.75,-0.12,0.99,0.95
6:8:56:34:80005,100.63,-36.99,118.59,-0.57,0.63,-0.13,0.86,0.93
6:8:56:34:80085,102.18,-37.95,117.61,-0.54,0.63,-0.14,0.84,0.9
6:8:56:34:80180,103.44,-37.72,117.81,-0.65,0.82,-0.23,1.07,0.92
6:8:56:34:80276,104.46,-37.13,119.5,-0.68,0.78,-0.17,1.05,0.98
6:8:56:34:80405,103.91,-37.11,123.07,-0.68,0.87,-0.17,1.12,1.08
6:8:56:34:80485,103.24,-39.99,126.58,-0.7,0.82,-0.21,1.1,1.09
6:8:56:34:80596,104.4,-42.36,128.04,-0.65,0.6,-0.12,0.9,1.04
6:8:56:35:80995,104.76,-35.9,124.06,-0.65,0.76,-0.23,1.03,1.01
6:8:56:35:81076,105.3,-36.65,123.32,-0.63,0.76,-0.26,1.02,0.98
6:8:56:35:81172,105.99,-37.98,123.35,-0.62,0.62,-0.25,0.92,0.99
6:8:56:35:81268,105.36,-37.8,124.07,-0.65,0.67,-0.21,0.95,0.96
6:8:56:35:81411,105.13,-37.23,124.48,-0.71,0.84,-0.19,1.12,1.0
6:8:56:35:81491,105.86,-38.42,125.35,-0.71,0.76,-0.13,1.04,1.04
6:8:56:35:81573,104.54,-39.47,128.5,-0.73,0.71,-0.16,1.03,1.06
6:8:56:36:82025,88.78,-40.81,137.12,-0.9,0.76,0.03,1.18,1.09
6:8:56:36:82120,83.13,-41.13,140.35,-0.78,0.74,0.09,1.08,1.1
6:8:56:36:82184,77.77,-42.6,143.63,-0.62,0.57,0.04,0.84,1.03
6:8:56:36:82295,69.96,-42.2,149.06,-0.66,0.61,0.24,0.93,0.95
6:8:56:36:82407,61.69,-40.63,156.29,-0.71,0.65,0.37,1.03,0.93
6:8:56:36:82503,55.0,-38.49,162.79,-0.68,0.64,0.44,1.03,0.99
6:8:56:36:82568,50.91,-37.78,167.49,-0.68,0.59,0.59,1.08,1.05
6:8:56:37:82983,39.35,-38.42,-179.25,-0.67,0.5,0.6,1.03,1.05
6:8:56:37:83079,36.81,-36.8,-177.79,-0.68,0.51,0.72,1.11,1.07
6:8:56:37:83191,34.02,-35.33,-176.66,-0.64,0.44,0.69,1.03,1.06
6:8:56:37:83318,30.54,-34.58,-175.78,-0.59,0.38,0.67,0.97,1.04
6:8:56:37:83382,27.73,-34.49,-173.82,-0.54,0.37,0.66,0.93,0.98
6:8:56:37:83511,26.99,-34.64,-172.39,-0.49,0.36,0.67,0.91,0.94
6:8:56:37:83588,27.27,-34.15,-170.94,-0.54,0.25,0.7,0.92,0.92
6:8:56:38:83994,16.18,-29.47,-156.9,-0.42,0.2,0.8,0.92,0.92
6:8:56:38:84090,13.79,-26.86,-155.33,-0.48,0.22,0.86,1.01,0.95
6:8:56:38:84185,12.6,-24.7,-155.36,-0.44,0.12,0.86,0.97,0.97
6:8:56:38:84282,10.55,-22.8,-154.13,-0.38,0.13,0.84,0.93,0.97
6:8:56:38:84379,8.14,-21.06,-151.44,-0.39,0.12,0.85,0.94,0.95
6:8:56:38:84475,6.72,-19.85,-148.83,-0.38,0.06,0.88,0.96,0.94
6:8:56:38:84572,5.99,-19.49,-147.89,-0.33,0.03,0.89,0.95,0.95
6:8:56:39:84998,4.78,-19.61,-169.86,-0.28,0.07,0.96,1.01,0.97
6:8:56:39:85080,3.81,-19.29,-177.93,-0.28,0.03,1.01,1.05,1.0
6:8:56:39:85176,2.59,-17.88,174.25,-0.29,0.04,1.03,1.07,1.04
6:8:56:39:85271,1.15,-16.82,167.64,-0.31,0.05,1.04,1.09,1.07
6:8:56:39:85400,0.15,-16.66,162.77,-0.26,0.03,1.02,1.06,1.07
6:8:56:39:85480,0.63,-18.08,159.07,-0.29,0.0,1.0,1.04,1.06
6:8:56:39:85576,0.0,-19.03,158.05,-0.23,0.03,1.02,1.05,1.05
6:8:56:40:85982,-5.32,-20.14,165.42,-0.29,0.03,0.95,0.99,1.03
6:8:56:40:86077,-6.05,-19.08,165.58,-0.17,0.06,0.95,0.97,1.0
6:8:56:40:86175,-5.04,-15.17,165.47,-0.25,0.12,0.99,1.03,0.99
6:8:56:40:86271,-5.41,-11.01,167.88,-0.37,0.03,1.01,1.07,1.02
6:8:56:40:86382,-5.05,-11.3,170.83,-0.27,0.14,0.95,1.0,1.03
6:8:56:40:86494,-4.48,-13.01,171.85,-0.15,0.15,0.87,0.89,0.99
6:8:56:40:86591,-4.57,-13.41,173.14,-0.17,0.14,0.92,0.95,0.95
6:8:56:41:86990,-8.95,-10.88,-178.62,-0.22,0.09,0.95,0.98,0.94
6:8:56:41:87086,-8.79,-11.7,-175.84,-0.21,0.1,0.94,0.97,0.96
6:8:56:41:87195,-8.3,-11.32,-173.42,-0.17,0.06,0.95,0.96,0.97
6:8:56:41:87294,-6.97,-10.07,-171.13,-0.2,0.09,0.98,1.0,0.98
6:8:56:41:87390,-5.27,-8.67,-169.15,-0.17,0.1,0.94,0.96,0.97
6:8:56:41:87533,-4.88,-7.47,-166.71,-0.31,0.04,1.0,1.05,1.0
6:8:56:41:87612,-5.62,-6.41,-163.25,-0.18,0.09,0.94,0.96,0.99
6:8:56:42:87987,-3.25,-6.3,-149.64,-0.18,0.1,0.94,0.96,0.99
6:8:56:42:88113,-2.64,-6.2,-145.96,-0.18,0.05,0.97,0.99,0.97
6:8:56:42:88194,-1.15,-6.25,-143.48,-0.21,0.1,0.96,0.99,0.98
6:8:56:42:88305,0.38,-6.21,-141.16,-0.15,0.1,0.96,0.97,0.98
6:8:56:42:88385,1.48,-6.74,-139.52,-0.2,0.16,0.95,0.98,0.98
6:8:56:42:88482,1.88,-7.1,-137.64,-0.16,0.08,0.91,0.93,0.96
6:8:56:42:88592,3.08,-6.49,-135.21,-0.19,0.09,0.95,0.97,0.96
6:8:56:43:89081,6.52,-4.87,-128.99,-0.12,0.19,0.97,1.0,0.97
6:8:56:43:89098,6.21,-5.07,-127.52,-0.13,0.11,0.96,0.98,0.98
6:8:56:43:89194,6.71,-5.41,-126.59,-0.13,0.14,0.97,0.99,0.99
6:8:56:43:89338,8.47,-5.57,-125.63,-0.13,0.16,0.97,0.99,0.99
6:8:56:43:89434,9.55,-5.31,-124.87,-0.11,0.17,0.96,0.98,0.99
6:8:56:43:89483,11.48,-5.31,-124.3,-0.12,0.26,0.92,0.96,0.98
6:8:56:43:89592,11.77,-5.44,-123.64,-0.07,0.22,0.94,0.97,0.97
6:8:56:44:90002,6.88,-6.47,-121.35,-0.12,0.11,0.95,0.96,0.97
6:8:56:44:90068,6.59,-6.11,-120.87,-0.09,0.12,0.95,0.96,0.97
6:8:56:44:90179,6.96,-6.36,-120.3,-0.12,0.11,0.96,0.97,0.97
6:8:56:44:90276,7.19,-6.32,-119.89,-0.1,0.11,0.95,0.96,0.97
6:8:56:44:90388,6.93,-6.34,-119.51,-0.11,0.13,0.97,0.99,0.98
6:8:56:44:90515,6.56,-6.23,-119.1,-0.11,0.11,0.97,0.98,0.98
6:8:56:44:90596,6.35,-6.12,-118.71,-0.1,0.12,0.96,0.98,0.98
6:8:56:45:90996,7.54,-6.73,-117.9,-0.12,0.13,0.96,0.98,0.98
6:8:56:45:91108,7.79,-6.51,-117.47,-0.1,0.15,0.96,0.98,0.98
6:8:56:45:91172,7.78,-6.55,-117.45,-0.12,0.13,0.96,0.98,0.98
6:8:56:45:91315,7.88,-7.03,-117.51,-0.11,0.13,0.95,0.97,0.97
6:8:56:45:91395,7.82,-7.15,-117.53,-0.11,0.13,0.95,0.96,0.97
6:8:56:45:91489,8.11,-7.3,-117.45,-0.07,0.11,0.96,0.97,0.97
6:8:56:45:91602,8.57,-8.06,-118.05,-0.09,0.14,0.97,0.98,0.97
6:8:56:46:91987,5.57,-8.13,-123.28,-0.16,0.08,1.03,1.05,1.0
6:8:56:46:92083,6.03,-6.89,-123.54,-0.17,0.11,0.98,1.0,1.01
6:8:56:46:92179,6.19,-5.97,-123.0,-0.08,-0.0,0.99,1.0,1.02
6:8:56:46:92274,5.51,-5.25,-121.82,-0.13,0.07,1.02,1.03,1.01
6:8:56:46:92370,4.83,-5.27,-119.99,-0.13,0.1,1.04,1.05,1.02
6:8:56:46:92482,4.93,-5.18,-118.15,-0.12,0.12,1.0,1.01,1.03
6:8:56:46:92578,5.82,-4.99,-116.42,-0.07,0.09,0.96,0.96,1.01
6:8:56:47:92977,10.09,-5.61,-111.51,-0.1,0.26,0.88,0.92,0.97
6:8:56:47:93071,9.68,-5.16,-110.68,-0.07,0.21,0.9,0.93,0.94
6:8:56:47:93182,9.26,-4.65,-110.49,-0.06,0.25,0.9,0.94,0.93
6:8:56:47:93278,9.63,-4.23,-110.73,-0.03,0.23,0.91,0.93,0.93
6:8:56:47:93375,10.92,-4.24,-111.66,-0.05,0.21,0.93,0.96,0.94
6:8:56:47:93488,12.62,-4.34,-113.02,-0.08,0.21,0.95,0.98,0.96
6:8:56:47:93598,13.66,-4.34,-114.22,-0.07,0.22,0.94,0.97,0.97
6:8:56:48:94051,12.25,-5.12,-115.72,-0.09,0.22,0.96,0.99,0.98
6:8:56:48:94067,12.0,-5.32,-116.18,-0.04,0.24,0.95,0.98,0.98
6:8:56:48:94212,11.94,-5.2,-116.62,-0.07,0.23,0.94,0.97,0.98
6:8:56:48:94276,12.04,-4.92,-116.91,-0.06,0.21,1.03,1.05,1.0
6:8:56:48:94404,12.23,-4.89,-117.12,-0.09,0.2,0.87,0.89,0.97
6:8:56:48:94501,12.04,-4.94,-117.38,-0.09,0.14,0.9,0.91,0.95
6:8:56:48:94580,11.38,-5.3,-117.48,-0.09,0.11,0.91,0.92,0.91
6:8:56:49:94982,11.01,-6.27,-118.62,-0.06,0.16,0.92,0.93,0.92
6:8:56:49:95122,11.9,-5.56,-119.07,-0.08,0.19,0.94,0.96,0.94
6:8:56:49:95187,12.87,-4.89,-119.11,-0.1,0.2,0.93,0.96,0.95
6:8:56:49:95315,13.75,-4.88,-119.15,-0.08,0.23,0.93,0.96,0.96
6:8:56:49:95380,14.16,-4.45,-119.28,-0.07,0.19,1.01,1.03,0.98
6:8:56:49:95491,14.34,-4.14,-119.22,-0.14,0.26,0.94,0.99,0.99
6:8:56:49:95603,14.67,-4.07,-119.22,-0.05,0.22,0.91,0.94,0.99
6:8:56:50:96001,14.73,-3.32,-119.66,-0.05,0.21,0.94,0.97,0.96
6:8:56:50:96081,14.64,-2.99,-119.91,-0.04,0.29,0.94,0.98,0.96
6:8:56:50:96210,14.76,-2.82,-120.02,-0.04,0.23,0.95,0.98,0.98
6:8:56:50:96307,15.02,-2.79,-120.56,-0.06,0.25,0.96,0.99,0.98
6:8:56:50:96386,15.13,-2.63,-120.97,-0.02,0.25,0.91,0.95,0.97
6:8:56:50:96498,15.41,-2.69,-121.01,-0.01,0.31,0.94,0.99,0.98
6:8:56:50:96595,15.68,-2.76,-121.47,-0.06,0.25,1.01,1.04,0.99
6:8:56:51:96995,15.39,-3.17,-122.9,-0.1,0.3,0.97,1.02,1.02
6:8:56:51:97074,15.5,-3.09,-123.16,-0.05,0.26,0.89,0.93,1.0
6:8:56:51:97186,15.26,-3.09,-123.33,-0.02,0.25,0.97,1.0,0.99
6:8:56:51:97299,14.81,-3.21,-123.36,-0.1,0.25,0.98,1.01,0.98
6:8:56:51:97377,14.88,-3.39,-123.45,-0.06,0.2,0.89,0.91,0.98
6:8:56:51:97487,15.09,-3.41,-123.46,-0.07,0.25,0.96,0.99,0.97
6:8:56:51:97585,15.3,-3.3,-123.57,-0.03,0.24,1.0,1.03,0.98
6:8:56:52:97992,16.56,-2.44,-123.58,-0.05,0.29,0.95,0.99,1.01
6:8:56:52:98086,16.3,-2.8,-123.51,-0.08,0.26,0.89,0.93,0.99
6:8:56:52:98199,15.94,-3.29,-123.32,-0.06,0.32,0.99,1.04,0.99
6:8:56:52:98277,16.15,-3.56,-123.06,-0.11,0.28,1.01,1.06,1.01
6:8:56:52:98373,16.07,-3.67,-122.99,-0.1,0.22,0.89,0.93,1.01
6:8:56:52:98470,15.26,-4.21,-123.14,-0.01,0.33,1.0,1.05,1.01
6:8:56:52:98583,13.61,-5.4,-123.0,-0.03,0.2,0.93,0.95,0.98
6:8:56:53:98967,9.71,-5.08,-123.94,-0.06,0.14,0.88,0.9,0.97
6:8:56:53:99078,9.03,-4.51,-124.31,-0.05,0.16,0.92,0.93,0.93
6:8:56:53:99190,8.4,-4.23,-124.06,-0.08,0.2,0.96,0.98,0.94
6:8:56:53:99286,8.43,-4.13,-123.95,-0.08,0.15,0.91,0.93,0.95
6:8:56:53:99381,8.55,-4.15,-123.95,-0.07,0.12,0.91,0.92,0.94
6:8:56:53:99477,8.59,-4.55,-124.08,-0.08,0.13,1.04,1.05,0.97
6:8:56:53:99588,8.82,-4.48,-124.35,-0.06,0.13,0.99,1.0,0.99
6:8:56:54:100011,5.89,-5.06,-123.56,-0.02,0.13,0.98,0.99,1.01
6:8:56:54:100091,6.44,-5.16,-123.93,-0.04,0.06,1.03,1.03,1.01
6:8:56:54:100204,6.7,-5.0,-124.09,-0.1,0.06,1.03,1.04,1.02
6:8:56:54:100283,6.62,-5.31,-124.05,-0.07,0.02,0.93,0.94,1.0
6:8:56:54:100380,6.61,-5.73,-124.16,-0.08,0.09,1.01,1.02,1.0
6:8:56:54:100476,6.15,-5.72,-124.08,-0.1,0.19,1.16,1.18,1.05
6:8:56:54:100572,6.02,-6.12,-124.12,-0.18,0.04,0.88,0.9,1.03
6:8:56:55:100984,4.91,-7.86,-123.84,-0.06,0.13,0.96,0.97,1.02
6:8:56:55:101095,4.57,-8.1,-123.77,-0.13,0.09,0.96,0.97,0.95
6:8:56:55:101192,4.2,-8.35,-123.81,-0.11,0.12,1.04,1.06,1.0
6:8:56:55:101289,4.17,-8.63,-123.85,-0.26,0.16,0.93,0.98,1.01
6:8:56:55:101383,3.91,-8.76,-123.62,-0.05,0.21,1.11,1.13,1.06
6:8:56:55:101481,3.86,-8.81,-123.47,-0.16,0.09,1.07,1.09,1.07
6:8:56:55:101576,3.46,-8.74,-123.24,-0.13,0.13,1.1,1.11,1.11
6:8:56:56:101993,1.17,-7.22,-124.81,-0.2,0.2,1.06,1.09,1.1
6:8:56:56:102088,1.74,-6.8,-125.35,-0.06,0.0,1.12,1.12,1.11
6:8:56:56:102198,2.26,-6.29,-126.02,0.0,-0.22,1.25,1.27,1.16
6:8:56:56:102294,2.25,-5.37,-125.86,-0.18,0.26,1.0,1.05,1.15
6:8:56:56:102390,3.01,-4.94,-126.19,-0.01,-0.22,1.18,1.2,1.17
6:8:56:56:102488,3.01,-4.31,-125.58,-0.33,0.24,1.13,1.2,1.15
6:8:56:56:102616,3.33,-4.22,-125.5,0.04,-0.14,1.36,1.37,1.25
6:8:56:57:102987,2.82,-3.03,-123.65,-0.21,0.16,1.18,1.21,1.26
6:8:56:57:103101,2.59,-4.2,-122.81,0.08,-0.17,1.31,1.32,1.3
6:8:56:57:103181,1.52,-5.31,-121.52,-0.3,0.37,1.04,1.14,1.22
6:8:56:57:103277,1.83,-6.43,-121.23,0.07,-0.1,1.26,1.26,1.24
6:8:56:57:103373,2.38,-6.33,-121.0,-0.24,0.24,1.14,1.19,1.2
6:8:56:57:103470,3.64,-6.01,-120.94,-0.03,0.06,1.41,1.41,1.29
6:8:56:57:103595,4.66,-5.11,-121.09,-0.17,-0.01,1.03,1.05,1.22
6:8:56:58:103979,4.43,-4.53,-120.06,0.01,-0.11,1.11,1.12,1.19
6:8:56:58:104106,2.75,-3.73,-119.7,-0.33,0.27,0.9,1.0,1.05
6:8:56:58:104186,2.09,-3.82,-119.43,0.03,-0.09,1.07,1.07,1.06
6:8:56:58:104297,1.58,-3.93,-119.06,-0.19,0.15,0.9,0.93,1.0
6:8:56:58:104392,1.87,-4.43,-118.53,-0.06,0.03,1.07,1.07,1.03
6:8:56:58:104490,1.63,-4.33,-118.34,-0.15,0.03,0.96,0.98,0.99
6:8:56:58:104585,1.9,-4.6,-117.99,-0.11,-0.03,0.83,0.84,0.96
6:8:56:59:104978,3.27,-5.79,-118.26,-0.34,0.29,0.93,1.03,0.95
6:8:56:59:105073,4.56,-6.55,-118.62,0.0,-0.11,1.26,1.27,1.05
6:8:56:59:105169,4.92,-6.79,-118.5,-0.17,0.09,1.03,1.05,1.12
6:8:56:59:105296,5.31,-7.54,-118.32,-0.03,-0.01,1.18,1.18,1.17
6:8:56:59:105409,4.91,-7.88,-118.31,0.03,0.0,0.97,0.97,1.07
6:8:56:59:105490,4.59,-7.53,-117.92,-0.07,0.12,1.02,1.03,1.06
6:8:56:59:105601,4.63,-6.98,-118.21,0.02,-0.14,0.89,0.9,0.97
6:8:57:0:105988,5.44,-6.12,-117.9,0.1,-0.19,1.16,1.18,1.04
6:8:57:0:106100,5.54,-5.75,-117.69,-0.18,0.23,0.93,0.97,1.02
6:8:57:0:106197,5.8,-5.64,-117.82,-0.04,-0.0,1.17,1.17,1.11
6:8:57:0:106294,5.52,-5.41,-117.74,-0.07,0.07,0.96,0.97,1.04
6:8:57:0:106374,5.52,-5.33,-117.48,0.02,0.01,1.11,1.11,1.08
6:8:57:0:106517,4.84,-4.9,-117.4,-0.05,-0.07,0.87,0.87,0.98
6:8:57:0:106613,4.31,-4.91,-117.04,-0.11,0.14,0.7,0.72,0.9
6:8:57:1:106995,2.99,-5.14,-116.59,-0.27,0.3,0.79,0.89,0.82
6:8:57:1:107093,3.41,-5.43,-116.52,0.05,-0.02,1.23,1.23,0.94
6:8:57:1:107205,2.96,-4.9,-116.37,-0.08,0.07,1.04,1.04,1.05
6:8:57:1:107268,3.38,-5.48,-116.1,-0.04,0.03,1.06,1.06,1.11
6:8:57:1:107395,3.03,-5.01,-116.38,0.05,-0.04,1.0,1.0,1.03
6:8:57:1:107477,3.08,-4.2,-116.43,-0.12,0.14,0.79,0.82,0.96
6:8:57:1:107588,2.99,-3.4,-116.98,0.09,-0.23,1.02,1.05,0.95
6:8:57:2:107983,2.49,-2.67,-117.49,-0.03,0.05,1.13,1.13,1.0
6:8:57:2:108095,2.59,-2.73,-117.56,0.07,-0.03,1.08,1.08,1.09
6:8:57:2:108177,3.09,-2.72,-117.69,-0.13,0.13,0.88,0.9,1.04
6:8:57:2:108287,3.71,-2.64,-117.81,0.06,-0.16,0.92,0.94,0.97
6:8:57:2:108385,3.73,-2.38,-117.88,-0.17,0.17,0.89,0.92,0.92
6:8:57:2:108481,4.07,-2.58,-117.85,-0.05,-0.1,1.04,1.05,0.97
6:8:57:2:108578,4.03,-2.83,-117.87,-0.12,0.07,1.02,1.03,1.0
6:8:57:3:108998,2.68,-4.18,-117.13,0.04,-0.12,1.05,1.05,1.05
6:8:57:3:109079,2.42,-4.29,-117.19,-0.15,0.13,0.95,0.97,1.02
6:8:57:3:109205,2.42,-4.8,-117.15,0.06,-0.04,1.08,1.08,1.04
6:8:57:3:109270,2.62,-5.06,-117.37,0.03,-0.03,1.04,1.04,1.03
6:8:57:3:109383,3.41,-5.51,-117.4,-0.15,0.07,0.78,0.79,0.97
6:8:57:3:109494,4.33,-5.74,-117.63,0.09,-0.1,0.99,1.0,0.95
6:8:57:3:109574,4.87,-5.49,-117.86,-0.15,0.15,0.8,0.82,0.87
6:8:57:4:109989,6.81,-4.63,-119.23,0.08,-0.08,1.01,1.01,0.95
6:8:57:4:110071,6.46,-3.83,-119.43,-0.14,0.26,0.88,0.93,0.92
6:8:57:4:110199,5.93,-3.56,-120.04,0.03,-0.1,1.0,1.0,0.98
6:8:57:4:110279,4.68,-3.17,-120.1,-0.23,0.26,0.97,1.03,0.99
6:8:57:4:110374,4.2,-3.19,-120.23,0.05,-0.08,1.25,1.25,1.1
6:8:57:4:110487,3.73,-3.25,-120.24,-0.21,0.15,1.02,1.06,1.11
6:8:57:4:110583,4.79,-4.3,-120.11,-0.02,0.03,1.19,1.19,1.17
6:8:57:5:110981,5.36,-4.18,-120.36,-0.22,0.33,0.95,1.03,1.09
6:8:57:5:111079,5.42,-4.25,-120.43,0.04,-0.13,1.21,1.22,1.15
6:8:57:5:111191,5.49,-4.1,-120.3,-0.11,0.22,0.85,0.88,1.04
6:8:57:5:111270,5.94,-4.22,-120.1,0.02,-0.03,1.08,1.08,1.06
6:8:57:5:111397,5.59,-3.72,-120.2,-0.09,0.23,1.02,1.06,1.01
6:8:57:5:111511,5.28,-3.46,-120.09,-0.07,0.03,1.08,1.08,1.07
6:8:57:5:111590,4.88,-2.88,-120.0,0.01,-0.06,1.04,1.04,1.06
6:8:57:6:112000,2.94,-1.82,-119.54,0.08,-0.01,1.03,1.04,1.05
6:8:57:6:112081,2.37,-1.51,-119.13,-0.15,0.05,1.0,1.01,1.03
6:8:57:6:112194,1.97,-1.7,-118.64,-0.02,-0.03,1.09,1.09,1.04
6:8:57:6:112273,0.72,-1.67,-118.32,-0.05,0.03,0.94,0.94,1.01
6:8:57:6:112384,-0.33,-2.1,-117.74,-0.12,0.2,0.77,0.8,0.94
6:8:57:6:112497,-0.86,-2.85,-117.28,-0.01,-0.07,0.88,0.89,0.88
6:8:57:6:112592,-0.55,-3.12,-116.79,-0.15,0.32,0.83,0.9,0.86
6:8:57:7:113015,1.87,-3.19,-116.01,-0.06,0.14,0.97,0.99,0.93
6:8:57:7:113078,2.23,-3.65,-115.7,-0.06,0.06,1.0,1.0,0.96
6:8:57:7:113177,2.88,-3.66,-115.71,0.14,-0.06,1.0,1.01,1.0
6:8:57:7:113286,3.04,-3.54,-115.58,-0.19,0.29,0.91,0.97,0.99
6:8:57:7:113398,3.74,-3.92,-115.51,0.02,-0.06,1.11,1.11,1.03
6:8:57:7:113495,3.45,-3.4,-115.65,-0.13,0.02,0.8,0.81,0.96
6:8:57:7:113575,2.96,-2.95,-115.48,0.02,0.01,1.05,1.05,0.99
6:8:57:8:113987,1.93,-3.5,-115.22,-0.17,0.09,0.97,0.99,0.95
6:8:57:8:114099,1.74,-3.52,-115.12,0.04,-0.08,1.07,1.07,1.04
6:8:57:8:114196,1.4,-3.14,-115.23,-0.11,0.23,1.03,1.06,1.04
6:8:57:8:114292,1.79,-3.38,-115.2,-0.1,-0.02,1.12,1.12,1.08
6:8:57:8:114388,1.74,-3.3,-115.54,-0.01,0.06,0.97,0.97,1.05
6:8:57:8:114484,2.36,-3.57,-115.63,-0.12,0.21,0.88,0.91,1.0
6:8:57:8:114612,2.95,-3.75,-115.95,0.08,-0.02,0.94,0.94,0.94
6:8:57:9:114995,3.5,-5.19,-116.14,-0.04,-0.05,1.01,1.02,0.96
6:8:57:9:115107,2.93,-4.91,-116.25,0.09,-0.08,1.04,1.05,1.0
6:8:57:9:115187,2.64,-4.71,-116.14,-0.03,0.33,0.89,0.95,1.0
6:8:57:9:115282,2.71,-4.68,-116.14,0.02,-0.04,1.08,1.09,1.03
6:8:57:9:115378,2.54,-4.56,-116.36,-0.13,0.16,0.99,1.01,1.02
6:8:57:9:115506,2.46,-4.39,-116.32,-0.08,-0.1,1.12,1.13,1.08
6:8:57:9:115603,1.85,-4.08,-116.36,-0.05,-0.03,1.01,1.02,1.05
6:8:57:10:116009,0.69,-3.33,-116.59,0.03,-0.05,1.14,1.14,1.1
6:8:57:10:116091,0.33,-3.22,-116.84,-0.06,0.07,1.04,1.04,1.07
6:8:57:10:116185,0.73,-3.68,-116.97,-0.03,0.02,1.2,1.2,1.13
6:8:57:10:116295,0.5,-3.56,-117.24,0.01,-0.06,1.09,1.09,1.11
6:8:57:10:116394,0.62,-3.59,-117.34,-0.25,0.16,0.97,1.02,1.1
6:8:57:10:116475,1.1,-3.83,-117.67,0.02,-0.14,0.99,1.0,1.04
6:8:57:10:116602,1.48,-3.65,-117.84,-0.18,0.14,0.91,0.94,0.99
6:8:57:11:116990,3.19,-5.34,-117.45,0.1,-0.12,1.12,1.13,1.02
6:8:57:11:117085,2.93,-4.81,-117.3,-0.24,0.22,1.01,1.06,1.04
6:8:57:11:117181,3.03,-4.75,-117.35,0.07,-0.09,1.09,1.09,1.09
6:8:57:11:117309,2.91,-4.35,-117.65,-0.15,0.14,1.01,1.03,1.06
6:8:57:11:117406,3.57,-4.72,-117.7,-0.03,-0.08,1.18,1.19,1.1
6:8:57:11:117470,2.65,-3.8,-117.88,0.02,0.1,1.09,1.09,1.1
6:8:57:11:117630,2.22,-2.64,-117.87,-0.1,0.04,0.98,0.98,1.09
6:8:57:12:117998,1.32,-2.07,-118.55,-0.2,0.07,0.97,1.0,1.02
6:8:57:12:118089,1.89,-2.48,-118.43,0.01,0.07,1.03,1.03,1.0
6:8:57:12:118201,2.14,-2.87,-118.48,-0.05,0.03,1.06,1.07,1.03
6:8:57:12:118299,2.64,-3.54,-118.22,-0.17,0.12,0.96,0.99,1.03
6:8:57:12:118392,2.59,-3.52,-118.02,0.12,-0.1,0.86,0.88,0.98
6:8:57:12:118489,2.37,-3.21,-117.92,-0.24,0.13,0.86,0.9,0.92
6:8:57:12:118616,2.52,-2.94,-117.99,0.11,0.01,0.98,0.98,0.92
6:8:57:13:118995,1.95,-2.85,-117.88,-0.07,0.1,0.88,0.89,0.92
6:8:57:13:119086,1.83,-3.22,-117.95,0.03,-0.07,0.93,0.93,0.93
6:8:57:13:119230,1.69,-3.59,-117.96,-0.09,0.31,0.86,0.91,0.91
6:8:57:13:119308,1.92,-3.74,-117.91,-0.03,-0.12,1.13,1.13,0.99
6:8:57:13:119389,1.1,-2.97,-118.13,-0.18,0.1,0.97,0.99,1.01
6:8:57:13:119516,1.18,-3.14,-118.25,-0.07,-0.03,1.17,1.17,1.1
6:8:57:13:119597,1.45,-3.8,-118.44,-0.02,-0.01,1.09,1.09,1.08
6:8:57:14:120036,5.31,-6.68,-119.16,0.05,-0.08,0.99,1.0,1.08
6:8:57:14:120086,5.36,-6.09,-119.17,-0.16,0.07,1.05,1.06,1.05
6:8:57:14:120182,5.89,-5.43,-118.93,0.03,0.15,0.94,0.96,1.0
6:8:57:14:120340,5.82,-4.6,-119.15,-0.09,-0.03,1.1,1.11,1.04
6:8:57:14:120390,5.58,-4.25,-119.04,-0.12,0.34,0.99,1.05,1.04
6:8:57:14:120486,5.56,-4.17,-119.13,0.08,-0.04,0.95,0.95,1.04
6:8:57:14:120598,4.79,-3.67,-119.1,-0.11,0.26,0.81,0.86,0.95
6:8:57:15:120985,4.23,-2.75,-119.01,-0.02,-0.08,1.07,1.08,0.96
6:8:57:15:121098,4.16,-2.51,-118.73,-0.11,0.25,0.87,0.91,0.95
6:8:57:15:121211,3.95,-2.18,-118.84,0.05,-0.1,1.1,1.11,1.03
6:8:57:15:121291,3.68,-1.6,-118.76,-0.26,0.18,0.93,0.99,1.0
6:8:57:15:121387,3.39,-1.39,-118.59,0.01,-0.13,1.13,1.14,1.08
6:8:57:15:121514,2.69,-0.97,-118.62,-0.13,0.09,1.07,1.08,1.07
6:8:57:15:121595,2.55,-1.01,-118.22,-0.03,-0.05,1.02,1.03,1.08
6:8:57:16:122017,2.69,-3.14,-117.61,-0.1,0.3,0.91,0.97,1.02
6:8:57:16:122096,3.49,-3.71,-117.56,-0.04,-0.11,1.13,1.14,1.04
6:8:57:16:122191,3.16,-3.46,-117.64,-0.18,0.06,0.99,1.01,1.04
6:8:57:16:122287,4.0,-3.86,-117.72,-0.04,0.05,0.91,0.92,1.02
6:8:57:16:122400,4.63,-4.14,-118.1,-0.01,-0.1,0.98,0.99,0.97
6:8:57:16:122495,4.83,-4.42,-118.09,-0.3,0.38,0.98,1.09,1.0
6:8:57:16:122608,4.89,-4.81,-118.49,0.03,-0.15,1.02,1.04,1.04
6:8:57:17:122989,2.66,-2.94,-118.58,-0.02,0.1,0.94,0.94,1.02
6:8:57:17:123087,1.95,-2.88,-118.7,-0.0,-0.0,0.98,0.98,0.99
6:8:57:17:123198,1.45,-3.08,-118.5,-0.15,0.22,0.8,0.85,0.92
6:8:57:17:123327,1.6,-3.52,-118.56,0.03,0.02,0.99,0.99,0.94
6:8:57:17:123390,1.56,-3.28,-118.59,-0.14,0.1,1.0,1.02,0.95
6:8:57:17:123518,2.53,-2.85,-118.48,-0.11,0.03,1.11,1.12,1.04
6:8:57:17:123631,2.38,-2.21,-118.8,-0.08,0.12,0.86,0.88,1.0
6:8:57:18:123998,5.46,-1.65,-119.02,-0.09,-0.0,1.13,1.13,1.04
6:8:57:18:124102,6.26,-0.55,-118.79,-0.06,0.14,0.95,0.96,0.99
6:8:57:18:124186,7.2,-0.81,-118.5,-0.09,0.07,1.01,1.02,1.04
6:8:57:18:124296,7.25,-1.26,-118.47,0.02,-0.15,0.96,0.97,0.99
6:8:57:18:124392,6.73,-1.86,-118.09,-0.18,0.18,0.95,0.99,0.99
6:8:57:18:124568,6.66,-2.5,-118.03,-0.02,-0.08,0.98,0.98,0.98
6:8:57:18:124600,6.14,-2.51,-117.93,-0.1,0.12,0.95,0.97,0.98
6:8:57:19:124977,5.24,-3.79,-118.04,0.16,0.05,0.88,0.89,0.95
6:8:57:19:125121,4.65,-3.95,-118.04,-0.19,0.24,0.92,0.97,0.94
6:8:57:19:125248,4.82,-4.54,-118.16,0.07,0.0,0.94,0.94,0.94
6:8:57:19:125312,4.44,-3.78,-118.16,-0.13,0.12,1.02,1.04,0.98
6:8:57:19:125393,4.78,-3.49,-118.11,-0.07,0.08,0.85,0.85,0.94
6:8:57:19:125489,4.09,-3.71,-118.42,0.01,-0.07,1.02,1.02,0.97
6:8:57:19:125633,3.75,-4.67,-118.56,0.03,0.31,0.91,0.96,0.94
6:8:57:20:126031,5.22,-2.35,-118.36,-0.09,-0.04,1.06,1.06,1.01
6:8:57:20:126111,4.96,-1.95,-117.87,-0.09,0.27,0.98,1.03,1.02
6:8:57:20:126331,5.02,-1.67,-117.73,0.11,-0.03,0.9,0.91,1.0
6:8:57:20:126333,4.88,-1.58,-117.51,-0.09,0.27,0.96,1.0,0.98
6:8:57:20:126534,4.78,-1.53,-117.42,-0.04,-0.07,1.08,1.08,1.0
6:8:57:20:126536,3.48,-1.5,-117.55,-0.06,0.08,0.79,0.79,0.96
6:8:57:20:126661,3.29,-1.98,-117.44,-0.08,0.01,1.0,1.01,0.96
6:8:57:21:127009,4.12,-0.03,-117.8,-0.07,0.11,1.02,1.03,0.94
6:8:57:21:127090,3.58,0.51,-117.58,-0.05,0.01,1.08,1.08,1.04
6:8:57:21:127203,3.55,1.02,-117.43,0.07,-0.11,1.04,1.05,1.05
6:8:57:21:127377,3.46,1.23,-117.09,-0.06,0.19,0.98,1.0,1.04
6:8:57:21:127394,3.59,1.05,-116.78,0.02,-0.06,1.07,1.08,1.04
6:8:57:21:127554,2.96,1.24,-116.93,-0.08,0.03,1.1,1.1,1.06
6:8:57:21:127602,2.52,0.66,-116.76,0.01,0.15,1.01,1.02,1.07
6:8:57:22:127980,3.38,-1.06,-116.68,-0.12,0.02,0.87,0.88,1.0
6:8:57:22:128076,4.26,-1.84,-116.41,-0.07,-0.01,1.11,1.11,1.0
6:8:57:22:128204,4.91,-2.05,-116.65,0.02,-0.08,1.11,1.12,1.04
6:8:57:22:128315,5.05,-1.94,-116.61,-0.17,0.22,0.94,0.98,1.07
6:8:57:22:128427,5.36,-2.04,-116.75,0.13,-0.01,1.01,1.02,1.04
6:8:57:22:128539,5.13,-1.81,-116.91,-0.06,0.09,1.03,1.03,1.01
6:8:57:22:128665,5.27,-1.67,-116.9,-0.15,-0.04,1.1,1.11,1.06
6:8:57:23:129031,3.91,-0.76,-117.25,-0.22,0.07,0.81,0.85,1.0
6:8:57:23:129110,4.0,-1.97,-117.22,0.1,0.04,1.21,1.21,1.06
6:8:57:23:129223,3.86,-2.48,-117.43,0.03,-0.07,1.14,1.15,1.07
6:8:57:23:129336,3.96,-2.83,-117.4,0.02,0.19,0.96,0.98,1.11
6:8:57:23:129416,4.15,-3.0,-117.72,0.17,0.09,0.99,1.01,1.05
6:8:57:23:129653,4.52,-2.63,-117.62,-0.18,0.26,0.77,0.83,0.94
6:8:57:23:129654,5.52,-2.51,-117.75,0.18,0.04,0.93,0.95,0.93
6:8:57:24:130017,5.06,-2.11,-117.84,-0.16,0.28,0.94,0.99,0.92
6:8:57:24:130147,4.94,-2.4,-118.04,0.01,-0.09,1.09,1.09,1.01
6:8:57:24:130179,4.32,-2.5,-118.25,-0.07,0.21,0.89,0.91,1.0
6:8:57:24:130371,4.51,-2.91,-118.28,-0.12,0.05,1.08,1.09,1.03
6:8:57:24:130402,4.96,-2.59,-118.52,-0.01,-0.03,1.03,1.03,1.01
6:8:57:24:130498,5.1,-2.52,-118.23,0.04,0.34,0.82,0.89,1.0
6:8:57:24:130626,4.53,-2.69,-118.35,0.05,-0.2,0.93,0.95,0.96
6:8:57:25:131063,1.03,-2.62,-117.56,-0.05,0.06,0.95,0.96,0.93
6:8:57:25:131107,0.64,-2.29,-117.86,0.03,-0.15,0.99,1.0,0.97
6:8:57:25:131201,0.44,-2.35,-117.86,-0.21,0.2,0.92,0.97,0.97
6:8:57:25:131297,0.93,-2.95,-118.06,-0.0,-0.13,0.88,0.89,0.95
6:8:57:25:131394,1.06,-3.07,-118.31,-0.13,0.05,0.97,0.98,0.95
6:8:57:25:131490,2.16,-3.6,-118.25,-0.02,0.05,1.11,1.11,0.99
6:8:57:25:131662,2.53,-3.34,-118.58,-0.07,-0.06,0.98,0.98,1.02
6:8:57:26:132019,3.59,-2.58,-119.0,0.04,-0.09,0.97,0.97,1.02
6:8:57:26:132082,2.53,-2.25,-118.96,-0.2,0.03,1.05,1.07,1.01
6:8:57:26:132290,2.18,-2.87,-118.71,-0.04,0.09,0.93,0.93,0.99
6:8:57:26:132322,1.77,-3.23,-118.83,-0.06,0.1,1.06,1.07,1.02
6:8:57:26:132370,1.96,-3.52,-118.48,-0.18,0.13,0.89,0.92,0.97
6:8:57:26:132482,2.35,-3.54,-118.59,0.0,-0.18,0.98,1.0,1.0
6:8:57:26:132594,2.09,-3.48,-118.57,-0.17,0.22,0.79,0.83,0.92
6:8:57:27:132983,1.96,-2.77,-118.72,0.06,0.0,0.84,0.84,0.89
6:8:57:27:133180,2.05,-2.79,-118.58,-0.25,0.18,1.01,1.05,0.91
6:8:57:27:133182,2.43,-3.07,-118.62,0.07,-0.15,1.0,1.01,0.97
6:8:57:27:133276,2.26,-3.05,-118.58,-0.19,0.14,1.0,1.03,1.03
6:8:57:27:133389,2.79,-3.38,-118.49,-0.05,-0.04,1.05,1.06,1.03
6:8:57:27:133500,2.91,-3.04,-118.56,-0.06,0.01,0.98,0.98,1.02
6:8:57:27:133580,3.11,-2.72,-118.33,-0.17,0.01,0.86,0.87,0.97
6:8:57:28:133981,1.79,-2.43,-117.75,0.04,0.06,0.69,0.69,0.85
6:8:57:28:134107,1.7,-2.53,-117.56,-0.23,0.02,0.71,0.75,0.77
6:8:57:28:134202,1.65,-2.82,-117.63,-0.03,-0.12,0.67,0.68,0.71
6:8:57:28:134490,1.66,-2.62,-117.69,-0.03,0.15,0.7,0.72,0.72
6:8:57:28:134491,2.41,-2.41,-117.96,-0.01,-0.06,0.64,0.64,0.68
6:8:57:28:134601,3.21,-1.84,-118.23,-0.08,-0.04,0.67,0.67,0.68
6:8:57:28:134604,3.63,-0.98,-118.33,-0.09,-0.04,0.62,0.62,0.65
6:8:57:29:135243,1.84,0.03,-117.72,-0.12,-0.02,0.65,0.67,0.65
6:8:57:29:135279,1.76,0.39,-117.39,0.0,0.07,0.59,0.59,0.63
6:8:57:29:135281,1.67,0.79,-117.41,0.15,-0.02,0.59,0.61,0.62
6:8:57:29:135343,1.51,1.21,-117.53,0.05,0.14,0.61,0.63,0.61
6:8:57:29:135456,1.65,1.41,-116.9,-0.13,-0.11,0.77,0.79,0.68
6:8:57:29:135472,1.73,1.2,-117.21,-0.08,-0.08,0.77,0.78,0.73
6:8:57:29:135616,1.83,0.92,-117.1,-0.24,0.05,0.78,0.81,0.8
6:8:57:30:136134,1.4,-0.27,-117.79,-0.08,-0.2,0.97,0.99,0.86
6:8:57:30:136137,0.87,-0.33,-117.65,-0.22,0.1,0.76,0.8,0.87
6:8:57:30:136183,0.47,-0.64,-117.73,-0.03,-0.03,1.0,1.0,0.93
6:8:57:30:136359,-0.03,-0.59,-117.69,-0.03,0.06,0.96,0.97,0.92
6:8:57:30:136566,0.02,-0.88,-117.47,-0.04,0.19,0.96,0.98,0.98
6:8:57:30:136569,0.22,-1.02,-117.52,0.05,-0.06,0.89,0.9,0.95
6:8:57:31:136854,0.19,-0.94,-117.14,-0.22,0.2,1.06,1.1,0.99
6:8:57:31:137025,0.61,-0.94,-116.35,-0.01,-0.2,1.14,1.16,1.05
6:8:57:31:137339,0.71,-0.98,-115.97,-0.19,0.1,0.98,1.01,1.09
6:8:57:31:137342,1.17,-1.37,-115.83,0.08,-0.03,1.06,1.06,1.08
6:8:57:31:137371,0.83,-1.18,-115.85,-0.11,-0.06,0.94,0.95,1.01
6:8:57:31:137387,0.96,-1.44,-115.65,0.01,0.21,1.01,1.03,1.01
6:8:57:31:137499,1.56,-1.62,-115.99,0.1,-0.18,1.08,1.1,1.03
6:8:57:31:137595,1.77,-1.39,-115.93,-0.14,0.11,0.88,0.9,1.01
6:8:57:32:138154,1.79,-1.52,-116.17,0.04,-0.2,0.95,0.97,0.99
6:8:57:32:138157,1.41,-1.44,-115.98,-0.1,0.17,0.97,0.99,0.95
6:8:57:32:138186,1.32,-1.84,-116.04,0.05,0.04,0.96,0.97,0.98
6:8:57:32:138298,1.02,-1.43,-116.18,-0.07,-0.03,0.97,0.97,0.98
6:8:57:32:138377,1.07,-1.18,-115.94,-0.12,0.07,0.87,0.88,0.94
6:8:57:32:138522,1.34,-1.27,-116.06,0.0,-0.23,0.98,1.01,0.95
6:8:57:32:138744,1.51,-1.29,-115.99,-0.09,0.16,0.85,0.87,0.92
6:8:57:33:139109,2.25,-1.53,-116.61,0.24,0.04,0.73,0.77,0.88
6:8:57:33:139120,1.94,-1.44,-116.48,-0.06,0.14,0.86,0.88,0.84
6:8:57:33:139281,2.04,-1.63,-116.4,-0.07,-0.11,1.09,1.1,0.91
6:8:57:33:139311,1.71,-1.38,-116.47,-0.03,-0.15,1.03,1.04,1.0
6:8:57:33:139377,1.51,-1.39,-116.14,-0.17,0.16,0.81,0.85,0.99
6:8:57:33:139566,1.59,-1.64,-116.27,0.1,-0.11,1.07,1.08,0.99
6:8:57:33:139598,1.38,-1.48,-116.12,-0.07,0.17,0.86,0.88,0.94
6:8:57:34:140237,2.25,-2.03,-116.63,0.04,-0.14,1.2,1.21,1.06
6:8:57:34:140238,2.3,-1.92,-116.7,-0.2,-0.0,0.87,0.89,0.99
6:8:57:34:140240,2.76,-2.17,-116.84,-0.02,-0.04,0.96,0.96,1.02
6:8:57:34:140284,2.32,-1.97,-116.97,-0.08,-0.02,1.03,1.04,0.96
6:8:57:34:140395,2.06,-2.23,-116.69,-0.2,0.04,0.95,0.97,0.99
6:8:57:34:140477,1.88,-2.33,-116.99,0.0,-0.14,1.2,1.21,1.07
6:8:57:34:140605,1.46,-2.55,-116.84,-0.18,0.17,0.97,1.01,1.06
6:8:57:35:141017,-1.28,-2.33,-116.95,-0.04,-0.19,0.98,1.0,1.07
6:8:57:35:141098,-2.49,-1.29,-116.51,-0.03,0.31,0.8,0.86,0.96
6:8:57:35:141177,-2.55,-0.93,-116.25,0.04,0.01,0.9,0.9,0.92
6:8:57:35:141433,-2.52,-0.64,-116.13,-0.08,-0.01,1.02,1.03,0.93
6:8:57:35:141497,-2.06,-1.1,-115.4,0.02,0.16,1.0,1.01,0.98
6:8:57:35:141561,-2.89,-3.13,-114.86,-0.05,0.0,0.13,0.14,0.73
6:8:57:35:141578,-4.45,-5.44,-119.72,0.0,0.03,0.12,0.12,0.42
6:8:57:36:142013,-1.73,-9.46,-98.3,-0.01,-0.01,0.02,0.02,0.1
6:8:57:36:142111,-2.29,-13.51,-104.62,0.02,-0.02,0.01,0.03,0.06
6:8:57:36:142207,0.16,-20.36,-108.02,0.01,-0.02,0.02,0.03,0.03
6:8:57:36:142270,7.38,-30.34,-109.54,-0.01,-0.01,0.04,0.05,0.03
6:8:57:36:142383,17.87,-42.3,-110.6,-0.05,0.02,0.09,0.1,0.06
6:8:57:36:142510,26.78,-52.35,-110.14,-0.05,0.04,0.11,0.13,0.09
6:8:57:36:142589,26.97,-58.05,-104.01,-0.09,0.06,0.15,0.18,0.14
6:8:57:37:143085,-29.2,-12.98,-33.93,-0.1,0.01,0.6,0.61,0.31
6:8:57:37:143102,-30.6,-3.33,-14.45,-0.15,0.05,0.68,0.7,0.5
6:8:57:37:143181,-22.97,-9.62,5.41,-0.8,0.81,2.83,3.05,1.45
6:8:57:37:143277,-37.43,8.24,3.7,-0.24,-0.27,3.38,3.4,2.38
6:8:57:37:143373,-24.83,-11.38,2.91,-1.12,-0.11,3.43,3.61,3.35
6:8:57:37:143469,-29.54,-18.66,9.94,-0.63,-0.08,2.63,2.7,3.24
6:8:57:37:143613,-22.87,-28.58,2.1,-0.19,0.1,1.93,1.94,2.75
6:8:57:38:143981,-156.03,-65.29,65.47,-0.28,0.01,1.18,1.21,1.95
6:8:57:38:144077,159.51,-61.56,109.77,-0.15,0.01,0.55,0.57,1.24
6:8:57:38:144188,140.08,-42.86,129.16,-0.13,0.0,0.24,0.28,0.69
6:8:57:38:144302,132.01,-24.61,143.36,-0.15,0.08,0.19,0.26,0.37
6:8:57:38:144382,115.39,-10.66,154.43,-0.13,0.12,0.16,0.24,0.26
6:8:57:38:144477,85.59,5.47,156.0,-0.14,0.06,0.29,0.32,0.27
6:8:57:38:144605,51.77,21.45,138.27,-0.33,-0.08,0.47,0.58,0.38
6:8:57:39:145021,-69.41,-27.53,11.21,-0.25,-0.21,3.33,3.34,1.41
6:8:57:39:145085,-52.99,-16.37,32.42,-0.43,1.0,1.87,2.17,2.03
6:8:57:39:145198,-66.75,-13.21,29.79,-0.14,0.23,1.33,1.36,2.29
6:8:57:39:145276,-62.48,-31.19,20.06,-0.08,-0.04,1.06,1.06,1.53
6:8:57:39:145389,-61.02,-52.07,28.16,-0.22,-0.01,1.19,1.21,1.21
6:8:57:39:145501,-65.83,-49.53,37.85,-0.2,0.05,1.16,1.18,1.15
6:8:57:39:145581,-65.77,-36.26,42.04,-0.17,0.11,0.99,1.01,1.13
6:8:57:40:146076,-64.54,-57.05,27.41,-0.1,0.02,0.89,0.9,1.03
6:8:57:40:146088,-69.54,-52.12,28.63,-0.12,0.05,0.89,0.9,0.94
6:8:57:40:146233,-72.82,-44.5,30.59,-0.13,0.11,0.89,0.9,0.9
6:8:57:40:146297,-73.8,-41.83,28.74,-0.12,0.11,0.89,0.91,0.9
6:8:57:40:146440,-75.62,-45.38,26.09,-0.1,0.09,0.91,0.91,0.91
6:8:57:40:146502,-77.06,-49.25,24.4,-0.08,0.07,0.91,0.91,0.91
6:8:57:40:146598,-76.83,-49.19,23.48,-0.1,0.1,0.9,0.91,0.91
6:8:57:41:146985,-83.18,-51.2,24.2,-0.09,0.12,0.81,0.82,0.88
6:8:57:41:147127,-83.34,-53.09,23.77,-0.05,0.14,0.71,0.73,0.82
6:8:57:41:147175,-87.2,-54.07,26.21,-0.07,0.09,0.78,0.79,0.78
6:8:57:41:147304,-88.25,-52.08,27.28,-0.12,0.15,0.81,0.83,0.78
6:8:57:41:147384,-84.86,-51.95,20.13,-0.11,0.22,0.92,0.95,0.86
6:8:57:41:147480,-71.37,-51.52,1.81,-0.06,0.07,1.06,1.06,0.95
6:8:57:41:147576,-72.85,-44.99,2.26,-0.14,0.06,1.1,1.11,1.04
6:8:57:42:147987,-76.51,-52.72,24.67,-0.08,0.13,1.39,1.4,1.19
6:8:57:42:148083,-81.9,-55.74,32.87,-0.08,0.11,1.29,1.3,1.27
6:8:57:42:148179,-84.67,-46.19,40.39,-0.1,0.17,1.21,1.22,1.31
6:8:57:42:148275,-85.15,-38.62,44.68,-0.09,0.21,1.12,1.14,1.22
6:8:57:42:148387,-90.89,-39.87,49.49,-0.07,0.15,1.09,1.11,1.16
6:8:57:42:148515,-95.58,-41.88,55.35,-0.06,0.11,1.08,1.09,1.11
6:8:57:42:148578,-87.59,-37.32,51.5,-0.08,0.11,1.01,1.02,1.07
6:8:57:43:149000,-74.0,-30.34,40.98,-0.12,0.04,0.92,0.93,1.01
6:8:57:43:149080,-76.27,-29.9,41.59,-0.13,0.03,0.91,0.92,0.96
6:8:57:43:149176,-73.68,-25.28,40.17,-0.15,0.03,0.93,0.95,0.93
6:8:57:43:149288,-67.16,-23.69,38.31,-0.19,0.05,0.96,0.98,0.95
6:8:57:43:149383,-56.8,-24.64,31.21,-0.16,0.04,0.96,0.97,0.96
6:8:57:43:149493,-49.05,-25.06,24.17,-0.14,0.04,0.97,0.98,0.97
6:8:57:43:149590,-41.41,-25.02,19.16,-0.14,0.06,0.98,0.99,0.98
6:8:57:44:149983,-46.26,-22.41,15.08,-0.08,0.12,0.86,0.88,0.95
6:8:57:44:150079,-50.17,-16.76,13.13,-0.04,0.16,0.86,0.87,0.91
6:8:57:44:150189,-55.31,-14.94,11.62,-0.03,0.17,0.86,0.87,0.87
6:8:57:44:150285,-60.04,-19.79,11.64,-0.04,0.18,0.87,0.89,0.88
6:8:57:44:150382,-63.51,-28.21,11.52,-0.03,0.17,0.88,0.9,0.89
6:8:57:44:150495,-67.38,-33.84,11.96,-0.01,0.15,0.92,0.93,0.91
6:8:57:44:150589,-71.25,-33.71,15.01,-0.0,0.17,0.92,0.94,0.92
6:8:57:45:151005,-73.98,-14.23,19.64,-0.07,0.21,1.14,1.16,1.01
6:8:57:45:151116,-76.91,-15.55,23.4,-0.08,0.23,1.24,1.26,1.12
6:8:57:45:151197,-77.85,-23.46,24.41,0.02,0.13,1.19,1.19,1.2
6:8:57:45:151277,-77.41,-26.85,31.81,-0.1,0.22,1.28,1.3,1.25
6:8:57:45:151373,-77.84,-27.53,34.16,-0.09,0.17,1.26,1.28,1.26
6:8:57:45:151484,-79.41,-27.69,37.13,-0.07,0.13,1.2,1.21,1.26
6:8:57:45:151581,-79.27,-23.26,41.37,-0.07,0.15,1.15,1.16,1.21
6:8:57:46:151997,-61.88,-17.92,42.17,-0.1,0.11,0.95,0.96,1.11
6:8:57:46:152079,-60.54,-17.11,41.25,-0.08,0.11,0.92,0.93,1.02
6:8:57:46:152191,-63.65,-16.8,41.39,-0.09,0.09,0.93,0.93,0.94
6:8:57:46:152287,-66.7,-14.47,41.94,-0.08,0.09,0.9,0.9,0.92
6:8:57:46:152383,-69.33,-11.3,42.9,-0.09,0.1,0.9,0.91,0.92
6:8:57:46:152526,-70.07,-10.17,42.96,-0.09,0.12,0.89,0.91,0.91
6:8:57:46:152574,-70.44,-12.31,42.69,-0.09,0.11,0.9,0.91,0.91
6:8:57:47:152990,-73.57,-2.7,38.31,-0.08,0.13,0.86,0.87,0.9
6:8:57:47:153117,-75.39,-3.89,37.85,-0.06,0.13,0.85,0.86,0.88
6:8:57:47:153182,-77.72,-8.08,37.15,-0.05,0.14,0.85,0.86,0.86
6:8:57:47:153280,-78.28,-8.32,35.09,-0.04,0.14,0.87,0.88,0.87
6:8:57:47:153423,-79.87,-2.89,31.69,-0.07,0.15,0.92,0.94,0.89
6:8:57:47:153487,-73.96,2.05,28.57,-0.08,0.19,1.02,1.04,0.95
6:8:57:47:153583,-68.28,1.0,26.66,0.01,0.19,0.96,0.98,0.98
6:8:57:48:153995,-69.71,-9.69,31.31,-0.04,0.18,1.16,1.17,1.06
6:8:57:48:154094,-70.24,-8.33,34.72,-0.06,0.2,1.14,1.16,1.1
6:8:57:48:154205,-70.14,-14.4,37.3,-0.08,0.17,1.1,1.12,1.15
6:8:57:48:154284,-74.14,-20.28,38.26,-0.07,0.11,1.13,1.14,1.14
6:8:57:48:154365,-76.52,-16.99,39.8,-0.06,0.12,1.07,1.08,1.11
6:8:57:48:154493,-75.25,-10.37,43.8,-0.1,0.17,1.06,1.08,1.1
6:8:57:48:154573,-76.01,-7.81,46.05,-0.12,0.19,1.11,1.13,1.1
6:8:57:49:154987,-71.82,-13.57,47.82,-0.13,0.11,1.03,1.04,1.08
6:8:57:49:155117,-62.2,-9.06,48.83,-0.12,0.24,0.97,1.01,1.06
6:8:57:49:155197,-60.06,-10.57,49.2,-0.09,0.17,0.9,0.92,0.99
6:8:57:49:155292,-63.52,-15.08,48.53,-0.11,0.08,0.89,0.9,0.94
6:8:57:49:155388,-64.78,-18.32,48.42,-0.12,0.09,0.9,0.91,0.91
6:8:57:49:155485,-67.45,-15.38,48.08,-0.11,0.09,0.88,0.89,0.9
6:8:57:49:155578,-71.3,-9.06,47.41,-0.11,0.09,0.88,0.89,0.9
6:8:57:50:155979,-77.64,-17.13,44.3,-0.07,0.09,0.86,0.87,0.88
6:8:57:50:156090,-78.32,-12.67,42.55,-0.12,0.09,0.93,0.94,0.9
6:8:57:50:156186,-81.71,-3.9,40.28,-0.1,0.06,0.91,0.92,0.91
6:8:57:50:156282,-76.73,0.93,39.31,-0.07,0.15,1.01,1.03,0.96
6:8:57:50:156410,-68.79,0.14,36.81,-0.03,0.14,0.95,0.96,0.97
6:8:57:50:156490,-57.48,-7.39,36.93,-0.07,0.13,0.97,0.98,0.99
6:8:57:50:156602,-47.21,-15.1,35.67,-0.1,0.16,1.03,1.04,1.0
6:8:57:51:156995,-43.53,-27.11,28.66,-0.08,0.15,1.12,1.13,1.05
6:8:57:51:157122,-49.97,-26.13,26.77,-0.01,0.12,1.23,1.24,1.14
6:8:57:51:157172,-53.16,-18.68,33.64,-0.1,0.19,1.19,1.21,1.19
6:8:57:51:157300,-57.46,-18.35,41.55,-0.13,0.24,1.27,1.3,1.25
6:8:57:51:157381,-60.23,-30.96,44.03,-0.07,0.14,1.3,1.31,1.28
6:8:57:51:157522,-62.04,-41.18,48.01,-0.04,0.17,1.21,1.22,1.28
6:8:57:51:157636,-66.39,-37.06,54.81,-0.08,0.19,1.14,1.16,1.23
6:8:57:52:158003,-55.3,-50.4,44.94,-0.04,0.08,0.9,0.91,1.1
6:8:57:52:158089,-58.06,-54.74,45.62,-0.1,0.08,0.91,0.92,0.99
6:8:57:52:158220,-61.88,-50.06,45.57,-0.12,0.09,0.93,0.94,0.92
6:8:57:52:158284,-66.91,-42.73,47.04,-0.09,0.1,0.91,0.92,0.93
6:8:57:52:158412,-70.56,-40.66,49.21,-0.11,0.08,0.89,0.9,0.92
6:8:57:52:158491,-72.28,-43.9,49.26,-0.09,0.1,0.86,0.87,0.9
6:8:57:52:158587,-74.74,-47.5,51.04,-0.08,0.07,0.79,0.8,0.86
6:8:57:53:159021,-87.04,-56.57,48.21,-0.12,0.07,0.82,0.83,0.83
6:8:57:53:159102,-90.93,-61.4,42.52,-0.09,0.06,0.74,0.75,0.79
6:8:57:53:159215,-99.93,-69.59,47.94,-0.08,0.06,0.75,0.76,0.78
6:8:57:53:159279,-123.2,-74.3,69.61,-0.11,0.09,0.83,0.84,0.78
6:8:57:53:159391,-120.99,-72.11,63.31,-0.13,0.12,0.87,0.89,0.83
6:8:57:53:159502,-108.45,-68.89,45.95,-0.1,0.08,0.91,0.92,0.88
6:8:57:53:159613,-98.35,-66.82,36.28,-0.14,0.1,0.94,0.95,0.92
6:8:57:54:159998,-75.8,-80.45,10.39,-0.19,0.2,1.28,1.31,1.06
6:8:57:54:160078,-12.1,-88.85,-53.65,-0.13,0.07,1.27,1.28,1.18
6:8:57:54:160190,119.69,-83.32,175.85,-0.2,0.03,1.3,1.32,1.3
6:8:57:54:160317,128.02,-85.68,169.78,-0.13,0.06,1.23,1.24,1.28
6:8:57:54:160382,-165.01,-84.56,106.66,-0.16,0.12,1.17,1.19,1.25
6:8:57:54:160478,-176.23,-81.92,118.01,-0.18,0.11,1.13,1.15,1.2
6:8:57:54:160590,127.31,-78.69,172.57,-0.12,0.1,1.08,1.09,1.14
6:8:57:55:160999,55.13,-63.75,-123.69,-0.11,0.21,0.89,0.92,1.06
6:8:57:55:161080,58.7,-60.48,-131.39,-0.09,0.1,0.87,0.88,0.96
6:8:57:55:161192,63.99,-53.81,-140.9,-0.08,0.06,0.86,0.87,0.89
6:8:57:55:161288,68.88,-48.06,-149.16,-0.09,0.07,0.89,0.9,0.88
6:8:57:55:161398,68.69,-45.9,-151.07,-0.09,0.06,0.93,0.93,0.9
6:8:57:55:161494,66.24,-49.24,-149.52,-0.09,0.03,0.89,0.9,0.91
6:8:57:55:161592,67.96,-51.18,-152.17,-0.11,0.13,0.88,0.9,0.91
6:8:57:56:161990,71.27,-39.89,-167.62,-0.12,0.01,0.88,0.89,0.89
6:8:57:56:162096,70.01,-44.82,-165.5,-0.17,-0.0,0.86,0.88,0.89
6:8:57:56:162193,70.3,-51.11,-163.71,-0.2,0.06,0.88,0.91,0.89
6:8:57:56:162290,62.02,-50.92,-159.29,-0.2,0.07,0.97,0.99,0.93
6:8:57:56:162385,50.6,-43.17,-154.03,-0.14,-0.0,1.01,1.02,0.97
6:8:57:56:162482,50.86,-40.91,-153.52,-0.13,-0.02,1.02,1.03,1.01
6:8:57:56:162578,44.95,-43.3,-146.21,-0.16,0.01,1.0,1.02,1.02
6:8:57:57:163043,25.27,-45.25,-120.5,-0.14,0.09,0.98,1.0,1.02
6:8:57:57:163082,20.04,-40.04,-116.27,-0.16,-0.03,0.93,0.94,0.99
6:8:57:57:163178,15.93,-37.75,-112.0,-0.17,-0.0,0.97,0.98,0.97
6:8:57:57:163274,10.72,-35.36,-103.9,-0.16,0.05,0.96,0.97,0.97
6:8:57:57:163370,6.99,-33.13,-97.31,-0.12,0.09,0.91,0.92,0.96
6:8:57:57:163482,4.88,-30.91,-95.72,-0.12,0.08,0.89,0.9,0.93
6:8:57:57:163577,5.25,-31.29,-97.56,-0.12,0.03,0.92,0.92,0.92
6:8:57:58:164025,-1.03,-24.05,-81.74,-0.12,0.06,0.93,0.94,0.92
6:8:57:58:164099,-0.3,-22.84,-81.01,-0.14,0.08,1.0,1.01,0.96
6:8:57:58:164178,-0.84,-19.53,-80.6,-0.15,0.07,1.04,1.05,1.0
6:8:57:58:164276,-1.14,-17.42,-81.01,-0.14,0.05,1.1,1.11,1.06
6:8:57:58:164386,-1.82,-17.38,-78.86,-0.14,0.07,1.12,1.13,1.09
6:8:57:58:164484,-3.29,-17.94,-75.9,-0.14,0.1,1.07,1.08,1.11
6:8:57:58:164580,-0.91,-18.19,-78.37,-0.13,0.09,1.01,1.02,1.08
6:8:57:59:164999,0.78,-18.56,-77.38,-0.09,0.15,0.87,0.89,1.0
6:8:57:59:165097,-1.69,-17.54,-74.37,-0.08,0.13,0.86,0.88,0.93
6:8:57:59:165178,-4.88,-15.76,-73.52,-0.1,0.12,0.92,0.94,0.9
6:8:57:59:165287,-7.41,-12.84,-73.52,-0.08,0.11,0.91,0.92,0.91
6:8:57:59:165385,-7.4,-12.59,-73.46,-0.06,0.11,0.9,0.91,0.92
6:8:57:59:165481,-5.32,-14.66,-74.13,-0.1,0.14,0.96,0.97,0.93
6:8:57:59:165577,-4.0,-15.74,-79.49,-0.1,0.13,1.11,1.12,1.0
6:8:58:0:166026,-1.17,-27.23,-73.85,-0.12,0.18,1.17,1.19,1.09
6:8:58:0:166102,-2.48,-31.4,-74.81,-0.1,0.16,1.14,1.16,1.15
6:8:58:0:166201,-2.24,-35.62,-79.88,-0.06,0.08,1.09,1.09,1.15
6:8:58:0:166296,-0.27,-39.63,-78.83,-0.08,0.13,1.05,1.07,1.11
6:8:58:0:166425,-0.22,-40.21,-76.14,-0.12,0.15,1.03,1.05,1.07
6:8:58:0:166518,-1.4,-35.2,-77.57,-0.09,0.11,0.99,1.0,1.04
6:8:58:0:166584,-1.45,-31.34,-79.47,-0.09,0.08,0.98,0.99,1.01
6:8:58:1:167041,4.5,-21.27,-87.61,-0.09,0.11,0.96,0.97,0.99
6:8:58:1:167089,4.95,-18.84,-89.32,-0.11,0.13,0.97,0.98,0.98
6:8:58:1:167235,4.99,-16.26,-89.23,-0.1,0.11,0.93,0.94,0.96
6:8:58:1:167346,5.48,-17.02,-89.13,-0.12,0.11,0.93,0.94,0.95
6:8:58:1:167377,6.3,-18.65,-91.0,-0.11,0.15,0.96,0.98,0.96
6:8:58:1:167490,9.17,-19.15,-96.2,-0.05,0.16,0.89,0.91,0.94
6:8:58:1:167662,10.99,-19.5,-104.37,-0.05,0.14,0.88,0.89,0.93
6:8:58:2:168025,6.95,-16.62,-97.85,-0.07,0.11,0.83,0.84,0.88
6:8:58:2:168074,9.3,-17.59,-101.41,-0.15,0.12,0.9,0.91,0.88
6:8:58:2:168233,10.43,-15.39,-109.33,-0.1,0.11,0.91,0.92,0.89
6:8:58:2:168327,9.58,-11.87,-115.94,-0.11,0.04,0.96,0.97,0.94
6:8:58:2:168377,11.21,-11.26,-120.35,-0.14,0.09,1.02,1.04,0.98
6:8:58:2:168583,14.28,-11.33,-125.8,-0.16,0.12,1.08,1.1,1.04
6:8:58:2:168615,17.76,-11.43,-133.9,-0.18,0.04,1.14,1.16,1.1
6:8:58:3:169160,25.83,-14.47,-144.89,-0.17,0.1,0.96,0.98,1.08
6:8:58:3:169163,21.56,-11.14,-141.59,-0.15,0.06,1.06,1.07,1.07
6:8:58:3:169207,18.52,-7.68,-145.05,-0.09,0.16,0.97,0.99,1.01
6:8:58:3:169410,18.61,-7.6,-153.32,-0.08,0.08,0.99,1.0,1.02
6:8:58:3:169412,18.67,-4.45,-159.52,-0.09,0.12,0.98,0.99,0.99
6:8:58:3:169506,19.38,-2.64,-164.81,-0.12,0.09,0.99,1.0,1.0
6:8:58:3:169570,19.77,-4.82,-168.69,-0.18,0.05,0.98,1.0,1.0
6:8:58:4:169992,19.17,-8.1,-173.38,-0.16,0.07,1.01,1.02,1.01
6:8:58:4:170080,17.71,-8.06,-178.12,-0.12,0.04,0.97,0.98,1.0
6:8:58:4:170189,14.78,-9.84,-175.4,-0.11,0.07,0.96,0.97,0.99
6:8:58:4:170304,14.64,-12.56,-172.0,-0.14,0.1,0.95,0.96,0.97
6:8:58:4:170382,16.87,-13.21,-173.94,-0.13,0.07,0.93,0.94,0.96
6:8:58:4:170509,20.37,-15.46,-177.61,-0.16,0.04,0.93,0.94,0.95
6:8:58:4:170575,21.49,-16.79,-176.8,-0.15,0.06,0.92,0.93,0.94
6:8:58:5:170983,28.74,-16.82,-178.6,-0.14,0.04,0.92,0.93,0.93
6:8:58:5:171096,26.82,-16.31,-179.35,-0.2,0.0,0.98,1.0,0.95
6:8:58:5:171177,23.75,-15.35,-174.61,-0.21,-0.04,1.04,1.06,1.0
6:8:58:5:171272,22.66,-15.31,-168.76,-0.19,-0.0,1.02,1.04,1.03
6:8:58:5:171368,24.37,-17.76,-165.02,-0.22,0.03,1.09,1.11,1.07
6:8:58:5:171512,25.92,-18.44,-162.27,-0.2,0.05,1.12,1.14,1.1
6:8:58:5:171591,29.4,-16.98,-162.44,-0.17,0.02,1.1,1.11,1.12
6:8:58:6:171996,43.9,-18.26,-159.22,-0.15,0.09,1.1,1.12,1.12
6:8:58:6:172108,46.65,-17.47,-161.07,-0.12,0.12,1.08,1.09,1.11
6:8:58:6:172186,47.1,-15.99,-163.43,-0.13,0.09,1.01,1.02,1.08
6:8:58:6:172284,40.74,-13.81,-161.11,-0.07,0.11,0.96,0.96,1.03
6:8:58:6:172395,34.27,-13.48,-157.47,-0.08,0.07,0.94,0.94,0.97
6:8:58:6:172476,34.64,-16.05,-154.37,-0.08,0.12,0.91,0.92,0.94
6:8:58:6:172572,31.71,-15.92,-152.3,-0.09,0.14,0.95,0.97,0.94
6:8:58:7:172994,15.56,-11.44,-138.57,-0.09,0.13,0.96,0.98,0.96
6:8:58:7:173090,12.9,-9.77,-137.4,-0.07,0.01,0.95,0.95,0.96
6:8:58:7:173186,12.03,-10.25,-134.14,-0.11,0.05,0.92,0.93,0.95
6:8:58:7:173281,10.28,-11.29,-128.36,-0.1,0.1,0.9,0.91,0.93
6:8:58:7:173378,9.9,-13.71,-125.6,-0.12,0.11,0.91,0.92,0.92
6:8:58:7:173489,11.62,-13.95,-127.67,-0.13,0.08,0.91,0.92,0.92
6:8:58:7:173585,9.71,-12.0,-130.51,-0.13,0.05,0.96,0.97,0.94
6:8:58:8:173987,5.15,-9.38,-110.75,-0.11,0.14,1.01,1.02,0.97
6:8:58:8:174085,3.71,-9.42,-112.5,-0.07,0.11,1.02,1.03,1.01
6:8:58:8:174198,3.82,-9.64,-111.33,-0.05,0.1,1.04,1.05,1.03
6:8:58:8:174278,4.95,-9.57,-106.75,-0.09,0.12,1.02,1.03,1.04
6:8:58:8:174373,5.5,-9.08,-101.86,-0.08,0.12,1.01,1.02,1.03
6:8:58:8:174485,4.79,-9.53,-97.77,-0.08,0.15,1.04,1.05,1.03
6:8:58:8:174582,3.81,-10.06,-96.17,-0.06,0.14,1.04,1.05,1.04
6:8:58:9:174986,6.84,-9.56,-86.08,-0.09,0.13,1.01,1.02,1.04
6:8:58:9:175068,7.4,-7.49,-87.49,-0.05,0.15,0.98,1.0,1.02
6:8:58:9:175181,10.42,-7.93,-90.79,-0.06,0.14,0.93,0.94,0.98
6:8:58:9:175276,10.73,-9.42,-92.32,-0.14,0.14,1.01,1.03,0.99
6:8:58:9:175372,7.62,-6.8,-90.4,-0.09,0.12,1.03,1.04,1.0
6:8:58:9:175482,6.19,-4.98,-85.29,-0.06,0.08,0.98,0.99,1.02
6:8:58:9:175579,8.9,-8.76,-80.63,-0.13,0.15,0.98,1.0,1.01
6:8:58:10:176001,5.05,-10.02,-77.34,-0.11,0.14,0.95,0.96,0.98
6:8:58:10:176114,3.42,-9.62,-76.61,-0.1,0.06,0.95,0.96,0.97
6:8:58:10:176192,2.78,-11.13,-75.37,-0.08,0.08,0.93,0.94,0.95
6:8:58:10:176307,2.87,-13.56,-71.58,-0.13,0.17,0.98,1.0,0.96
6:8:58:10:176386,0.77,-11.01,-70.74,-0.09,0.15,0.99,1.0,0.98
6:8:58:10:176482,-0.22,-9.07,-72.47,-0.07,0.09,0.91,0.92,0.97
6:8:58:10:176609,1.01,-11.41,-71.08,-0.08,0.07,0.89,0.9,0.94
6:8:58:11:177006,2.9,-11.47,-72.29,-0.09,0.08,1.01,1.02,0.94
6:8:58:11:177085,3.74,-8.95,-72.52,-0.08,0.17,1.06,1.07,1.0
6:8:58:11:177181,4.26,-11.04,-70.87,-0.05,0.16,1.13,1.14,1.08
6:8:58:11:177293,7.4,-13.56,-72.48,-0.07,0.19,1.21,1.22,1.15
6:8:58:11:177470,11.31,-18.08,-76.73,-0.05,0.18,1.29,1.31,1.22
6:8:58:11:177487,13.17,-22.64,-77.99,-0.08,0.22,1.33,1.35,1.29
6:8:58:11:177582,15.24,-26.88,-81.47,-0.09,0.19,1.31,1.33,1.33
6:8:58:12:178010,14.37,-42.2,-86.18,-0.09,0.16,0.97,0.99,1.22
6:8:58:12:178075,15.12,-40.54,-89.98,-0.1,0.16,0.92,0.94,1.09
6:8:58:12:178188,17.87,-41.85,-97.55,-0.11,0.06,0.89,0.9,0.94
6:8:58:12:178331,17.83,-42.93,-100.99,-0.12,0.07,0.87,0.88,0.91
6:8:58:12:178411,13.89,-44.44,-98.45,-0.13,0.06,0.82,0.83,0.87
6:8:58:12:178506,6.79,-44.88,-90.38,-0.15,0.03,0.8,0.82,0.84
6:8:58:12:178624,0.31,-44.22,-82.14,-0.17,0.08,0.79,0.81,0.82
6:8:58:13:179138,-0.15,-42.08,-85.03,-0.16,0.04,0.88,0.89,0.84
6:8:58:13:179202,-0.79,-37.2,-84.82,-0.12,0.08,0.85,0.86,0.86
6:8:58:13:179218,2.67,-34.99,-87.93,-0.12,0.07,0.89,0.9,0.88
6:8:58:13:179423,7.01,-34.74,-94.64,-0.1,0.24,0.9,0.94,0.9
6:8:58:13:179426,11.9,-34.66,-105.19,-0.07,0.16,0.89,0.91,0.91
6:8:58:13:179537,19.67,-33.1,-116.07,0.01,0.16,0.9,0.91,0.92
6:8:58:13:179617,27.1,-32.68,-122.28,-0.05,0.23,0.86,0.89,0.91
6:8:58:14:180140,12.86,-23.61,-107.51,-0.08,0.18,0.99,1.01,0.94
6:8:58:14:180168,16.61,-26.31,-113.73,-0.12,0.17,1.04,1.06,0.99
6:8:58:14:180216,16.91,-24.02,-124.63,-0.06,0.16,1.14,1.16,1.08
6:8:58:14:180295,22.68,-25.19,-137.74,-0.16,0.06,1.19,1.2,1.14
6:8:58:14:180455,31.79,-26.61,-146.51,-0.19,-0.05,1.19,1.21,1.19
6:8:58:14:180535,38.21,-32.33,-149.9,-0.22,0.08,1.31,1.33,1.25
6:8:58:14:180629,34.93,-33.76,-146.65,-0.14,0.11,1.32,1.34,1.29
6:8:58:15:181082,57.03,-38.01,-168.06,-0.16,0.19,1.01,1.04,1.23
6:8:58:15:181083,41.25,-35.36,-154.29,-0.15,0.13,0.96,0.98,1.12
6:8:58:15:181194,37.31,-30.98,-154.63,-0.09,0.06,0.85,0.85,0.96
6:8:58:15:181290,42.79,-26.27,-164.86,-0.11,0.09,0.87,0.88,0.9
6:8:58:15:181418,47.3,-18.94,-172.67,-0.07,0.12,0.88,0.89,0.87
6:8:58:15:181496,46.92,-14.2,-173.6,-0.06,0.12,0.86,0.87,0.88
6:8:58:15:181593,45.45,-12.76,-170.84,-0.05,0.11,0.84,0.85,0.87
6:8:58:16:182030,46.47,-1.65,-173.72,-0.09,0.08,0.87,0.88,0.87
6:8:58:16:182078,46.98,1.87,-176.36,-0.09,0.09,0.86,0.87,0.87
6:8:58:16:182175,47.44,3.02,-176.82,-0.12,0.08,0.83,0.84,0.86
6:8:58:16:182271,48.12,-0.26,-175.08,-0.13,0.09,0.85,0.87,0.86
6:8:58:16:182414,50.33,-4.92,-172.05,-0.17,0.07,0.85,0.87,0.86
6:8:58:16:182493,52.29,-7.26,-171.38,-0.21,0.01,0.83,0.86,0.87
6:8:58:16:182590,53.48,-7.11,-174.1,-0.22,0.0,0.88,0.9,0.88
6:8:58:17:182991,41.48,-7.55,-173.7,-0.22,-0.02,0.97,1.0,0.92
6:8:58:17:183073,35.88,-13.24,-165.72,-0.21,0.01,0.99,1.01,0.97
6:8:58:17:183183,34.55,-17.03,-160.82,-0.25,0.02,1.07,1.09,1.04
6:8:58:17:183298,37.92,-15.11,-161.43,-0.24,0.02,1.11,1.14,1.08
6:8:58:17:183377,39.53,-11.99,-163.91,-0.21,-0.08,1.13,1.16,1.13
6:8:58:17:183472,44.38,-10.04,-165.75,-0.22,0.0,1.16,1.18,1.16
6:8:58:17:183584,48.9,-11.24,-162.48,-0.18,-0.02,1.2,1.21,1.18
6:8:58:18:184000,66.66,-6.99,-168.21,-0.11,0.09,1.11,1.12,1.17
6:8:58:18:184081,72.75,-5.61,-171.7,-0.13,0.12,1.07,1.08,1.14
6:8:58:18:184177,72.57,-9.34,-169.52,-0.13,0.13,1.04,1.06,1.08
6:8:58:18:184289,65.9,-13.08,-162.9,-0.12,0.02,1.0,1.01,1.05
6:8:58:18:184386,57.2,-15.28,-157.54,-0.12,0.06,0.95,0.96,1.01
6:8:58:18:184480,51.11,-15.96,-155.77,-0.11,0.05,0.96,0.96,0.98
6:8:58:18:184609,43.29,-13.68,-153.76,-0.12,0.1,0.97,0.98,0.97
6:8:58:19:185028,23.16,-11.41,-140.95,-0.08,0.08,0.97,0.97,0.97
6:8:58:19:185077,19.26,-12.65,-135.38,-0.06,0.09,0.91,0.91,0.96
6:8:58:19:185188,19.87,-15.59,-129.99,-0.07,0.12,0.95,0.96,0.95
6:8:58:19:185285,19.67,-15.68,-126.51,-0.15,0.14,0.97,0.99,0.96
6:8:58:19:185380,14.89,-11.55,-124.68,-0.09,0.13,0.94,0.95,0.97
6:8:58:19:185476,11.65,-10.84,-121.92,-0.09,0.09,0.92,0.93,0.96
6:8:58:19:185579,10.54,-10.87,-117.64,-0.09,0.14,0.9,0.92,0.93
6:8:58:20:185995,5.64,-8.42,-101.96,-0.04,0.15,0.93,0.94,0.93
6:8:58:20:186076,7.67,-13.97,-97.86,-0.04,0.14,0.88,0.9,0.92
6:8:58:20:186172,11.84,-18.12,-100.3,-0.11,0.21,0.92,0.95,0.93
6:8:58:20:186269,10.07,-14.14,-103.28,-0.08,0.13,0.96,0.97,0.94
6:8:58:20:186395,5.55,-8.02,-100.98,-0.08,0.02,0.97,0.97,0.97
6:8:58:20:186476,5.03,-6.1,-89.72,-0.11,0.12,0.98,1.0,0.98
6:8:58:20:186586,5.01,-8.3,-83.94,-0.12,0.15,1.04,1.06,1.01
6:8:58:21:186977,13.85,-17.99,-100.44,-0.09,0.08,1.13,1.13,1.06
6:8:58:21:187103,14.71,-21.53,-90.14,-0.07,0.16,1.06,1.08,1.09
6:8:58:21:187184,13.85,-22.28,-86.18,-0.09,0.2,1.03,1.05,1.09
6:8:58:21:187280,11.26,-19.75,-90.55,-0.08,0.12,1.0,1.01,1.05
6:8:58:21:187376,10.25,-17.32,-94.31,-0.04,0.11,0.95,0.95,1.0
6:8:58:21:187486,8.93,-16.51,-92.49,-0.06,0.13,0.94,0.95,0.97
6:8:58:21:187584,7.3,-16.95,-87.83,-0.08,0.13,0.9,0.91,0.94
6:8:58:22:188003,3.26,-12.48,-85.9,-0.11,0.06,1.0,1.0,0.96
6:8:58:22:188101,4.09,-9.47,-84.89,-0.1,0.13,0.99,1.0,0.97
6:8:58:22:188181,5.65,-8.03,-83.45,-0.13,0.1,1.0,1.01,1.01
6:8:58:22:188325,6.75,-7.94,-84.26,-0.12,0.09,0.98,0.99,1.0
6:8:58:22:188372,8.05,-9.0,-88.12,-0.12,0.11,0.96,0.97,0.99
6:8:58:22:188485,9.81,-8.8,-95.25,-0.09,0.1,0.94,0.95,0.97
6:8:58:22:188597,10.19,-8.08,-99.1,-0.07,0.09,0.91,0.92,0.95
6:8:58:23:189001,5.1,-1.45,-89.05,-0.09,0.14,0.94,0.95,0.94
6:8:58:23:189144,3.05,2.01,-94.73,-0.02,0.2,0.91,0.94,0.94
6:8:58:23:189177,4.44,2.62,-97.42,-0.06,0.16,1.0,1.01,0.97
6:8:58:23:189289,2.07,2.22,-96.68,-0.06,0.12,1.16,1.16,1.04
6:8:58:23:189383,4.97,-1.19,-93.95,-0.11,0.16,1.19,1.2,1.13
6:8:58:23:189478,8.66,-2.9,-93.48,-0.07,0.15,1.19,1.21,1.19
6:8:58:23:189607,11.26,-8.45,-93.71,-0.1,0.2,1.24,1.26,1.22
6:8:58:24:190037,15.59,-13.9,-106.1,-0.12,0.13,1.08,1.09,1.18
6:8:58:24:190069,14.07,-10.3,-107.55,-0.06,0.14,0.99,1.0,1.12
6:8:58:24:190228,13.57,-10.76,-110.0,-0.07,0.18,0.97,0.99,1.03
6:8:58:24:190355,12.56,-10.81,-110.29,-0.1,0.16,1.0,1.02,1.01
6:8:58:24:190389,12.64,-8.93,-111.68,-0.07,0.11,1.0,1.01,1.01
6:8:58:25:191001,12.68,-8.65,-114.16,-0.07,0.09,0.97,0.97,1.0
6:8:58:25:191003,11.93,-9.64,-113.62,-0.12,0.15,0.99,1.01,1.0
6:8:58:25:191053,8.26,-5.75,-125.94,-0.1,0.03,0.95,0.95,0.98
6:8:58:25:191140,8.55,-5.43,-126.33,-0.09,0.12,0.92,0.93,0.96
6:8:58:25:191218,9.35,-5.13,-125.49,-0.09,0.14,0.91,0.92,0.93
6:8:58:25:191282,9.51,-3.82,-126.04,-0.08,0.11,0.86,0.87,0.91
6:8:58:25:191395,8.17,-3.71,-128.2,-0.1,0.11,0.86,0.88,0.89
6:8:58:25:191489,6.57,-2.38,-131.27,-0.08,0.1,0.81,0.82,0.85
6:8:58:25:191604,5.69,-1.37,-133.48,-0.08,0.07,0.78,0.79,0.83
6:8:58:26:191983,-4.41,6.72,-128.98,-0.1,0.05,0.83,0.84,0.82
6:8:58:26:192079,-5.18,7.21,-128.39,-0.14,0.05,0.87,0.89,0.84
6:8:58:26:192189,-5.34,7.85,-125.28,-0.16,0.08,0.91,0.93,0.89
6:8:58:26:192317,-7.61,7.96,-124.55,-0.1,0.09,0.93,0.94,0.92
6:8:58:26:192365,-5.9,4.0,-123.92,-0.11,0.1,0.99,1.0,0.96
6:8:58:26:192494,-1.72,0.45,-125.85,-0.11,0.08,1.02,1.03,0.99
6:8:58:26:192574,-0.03,0.59,-124.51,-0.09,0.07,1.06,1.06,1.03
6:8:58:27:192984,4.95,1.07,-122.62,-0.11,0.06,1.11,1.12,1.07
6:8:58:27:193080,8.21,0.92,-123.83,-0.12,0.11,1.21,1.22,1.13
6:8:58:27:193176,11.66,-1.17,-120.49,-0.22,0.04,1.35,1.37,1.23
6:8:58:27:193272,16.69,-3.88,-117.66,-0.21,0.11,1.35,1.37,1.32
6:8:58:27:193415,21.23,-6.48,-119.02,-0.15,0.08,1.29,1.3,1.35
6:8:58:27:193495,26.78,-10.78,-122.28,-0.15,0.09,1.28,1.29,1.32
6:8:58:27:193591,31.86,-12.53,-124.47,-0.16,0.15,1.15,1.17,1.26
6:8:58:28:193996,27.7,-12.39,-126.92,-0.07,0.09,0.85,0.86,1.11
6:8:58:28:194076,23.34,-10.67,-128.16,-0.05,0.13,0.95,0.96,0.99
6:8:58:28:194173,18.15,-8.82,-127.7,-0.04,0.12,0.96,0.97,0.93
6:8:58:28:194269,13.3,-6.73,-122.94,-0.05,0.07,0.92,0.92,0.95
6:8:58:28:194380,9.83,-7.66,-116.32,-0.08,0.11,0.91,0.92,0.94
6:8:58:28:194476,8.7,-10.02,-113.55,-0.08,0.13,0.9,0.92,0.92
6:8:58:28:194572,9.03,-10.55,-116.64,-0.07,0.13,0.91,0.92,0.92
6:8:58:29:195008,2.97,-7.86,-116.15,-0.09,0.1,0.86,0.87,0.9
6:8:58:29:195088,-1.18,-5.69,-111.68,-0.11,0.11,0.88,0.9,0.9
6:8:58:29:195186,-2.22,-4.75,-111.32,-0.1,0.15,0.91,0.92,0.9
6:8:58:29:195282,-0.87,-3.85,-114.57,-0.12,0.12,0.96,0.98,0.93
6:8:58:29:195425,-1.45,-0.48,-114.78,-0.09,0.01,0.94,0.95,0.95
6:8:58:29:195490,-1.94,1.77,-109.07,-0.11,0.03,0.9,0.91,0.95
6:8:58:29:195586,2.35,0.37,-103.15,-0.11,0.1,0.91,0.92,0.93
6:8:58:30:195979,3.21,1.57,-113.03,-0.04,0.13,0.95,0.96,0.93
6:8:58:30:196074,2.11,2.77,-106.57,-0.07,0.13,1.04,1.05,0.98
6:8:58:30:196169,0.41,6.25,-98.43,-0.07,0.13,1.07,1.08,1.03
6:8:58:30:196298,3.3,3.56,-91.44,-0.04,0.15,1.08,1.09,1.08
6:8:58:30:196378,6.96,-4.83,-90.36,-0.1,0.22,1.21,1.23,1.14
6:8:58:30:196474,8.88,-8.18,-95.79,-0.05,0.2,1.24,1.26,1.19
6:8:58:30:196587,8.26,-9.95,-98.45,-0.05,0.14,1.26,1.27,1.25
6:8:58:31:197001,11.31,-25.25,-90.75,-0.14,0.14,1.07,1.09,1.21
6:8:58:31:197081,12.17,-23.63,-100.37,-0.05,0.05,1.03,1.03,1.13
6:8:58:31:197193,11.62,-24.42,-101.33,-0.11,0.07,1.01,1.02,1.05
6:8:58:31:197305,7.04,-21.74,-90.21,-0.17,0.17,0.99,1.02,1.02
6:8:58:31:197369,2.58,-18.97,-80.65,-0.18,0.1,0.97,0.99,1.01
6:8:58:31:197479,1.71,-17.38,-85.61,-0.17,0.06,0.88,0.9,0.97
6:8:58:31:197609,0.5,-15.67,-96.46,-0.14,0.0,0.84,0.85,0.92
6:8:58:32:197984,-5.83,-14.08,-82.66,-0.12,0.04,0.9,0.91,0.89
6:8:58:32:198081,-6.29,-13.18,-77.89,-0.15,0.1,0.92,0.94,0.9
6:8:58:32:198192,-3.97,-9.92,-80.5,-0.15,0.08,0.93,0.95,0.93
6:8:58:32:198272,-1.68,-8.2,-86.74,-0.08,0.04,0.87,0.87,0.92
6:8:58:32:198399,2.74,-11.93,-90.64,-0.08,0.08,0.88,0.89,0.9
6:8:58:32:198495,8.49,-14.11,-92.82,-0.08,0.15,0.82,0.84,0.87
6:8:58:32:198592,9.69,-9.85,-94.9,-0.08,0.16,0.8,0.82,0.85
6:8:58:33:198982,3.13,4.66,-89.9,0.01,0.17,0.94,0.96,0.87
6:8:58:33:199110,3.99,4.83,-87.56,0.01,0.16,0.99,1.0,0.92
6:8:58:33:199173,8.81,0.63,-86.77,0.03,0.21,0.99,1.01,0.99
6:8:58:33:199302,12.62,-6.08,-90.16,-0.0,0.3,1.07,1.11,1.04
6:8:58:33:199380,13.61,-7.13,-99.31,0.01,0.28,1.15,1.19,1.1
6:8:58:33:199479,11.67,-6.38,-102.68,0.04,0.18,1.15,1.17,1.16
6:8:58:33:199620,14.17,-9.0,-96.85,-0.02,0.23,1.09,1.12,1.16
6:8:58:34:199975,17.24,-17.04,-109.08,-0.1,0.12,1.16,1.17,1.15
6:8:58:34:200135,21.27,-18.73,-112.8,-0.12,0.14,1.11,1.13,1.14
6:8:58:34:200216,17.67,-18.97,-110.38,-0.09,0.13,1.05,1.07,1.12
6:8:58:34:200312,13.78,-18.19,-105.78,-0.09,0.2,0.99,1.01,1.07
6:8:58:34:200438,14.16,-17.99,-105.43,-0.13,0.2,0.96,0.99,1.02
6:8:58:34:200472,13.74,-15.79,-109.28,-0.11,0.13,0.95,0.97,0.99
6:8:58:34:200600,11.67,-14.06,-112.81,-0.09,0.09,0.93,0.94,0.97
6:8:58:35:200969,7.67,-9.54,-111.79,-0.1,0.1,0.91,0.93,0.94
6:8:58:35:201080,6.15,-6.56,-112.39,-0.08,0.09,0.9,0.9,0.92
6:8:58:35:201178,5.08,-4.46,-110.24,-0.09,0.1,0.87,0.88,0.9
6:8:58:35:201305,5.36,-3.15,-108.84,-0.09,0.11,0.9,0.91,0.9
6:8:58:35:201386,6.54,-1.32,-109.14,-0.09,0.11,0.92,0.93,0.91
6:8:58:35:201495,6.13,1.15,-108.86,-0.11,0.11,0.91,0.92,0.92
6:8:58:35:201577,4.88,2.97,-110.21,-0.07,0.1,0.85,0.86,0.91
6:8:58:36:201999,1.38,1.83,-122.27,-0.03,0.14,0.8,0.81,0.87
6:8:58:36:202109,-2.57,3.24,-118.97,-0.03,0.12,0.83,0.84,0.84
6:8:58:36:202175,-3.47,6.31,-109.76,-0.04,0.16,0.82,0.83,0.83
6:8:58:36:202318,-0.46,7.7,-102.1,-0.05,0.18,0.87,0.89,0.86
6:8:58:36:202462,-1.7,6.82,-101.84,-0.01,0.23,0.96,0.99,0.9
6:8:58:36:202478,-1.27,3.19,-108.09,-0.03,0.18,1.0,1.02,0.97
6:8:58:36:202573,-0.95,1.8,-113.47,-0.05,0.12,1.06,1.07,1.03
6:8:58:37:203284,5.69,-10.85,-110.35,-0.1,0.21,1.43,1.44,1.18
6:8:58:37:203326,10.39,-14.98,-114.02,-0.07,0.18,1.36,1.38,1.3
6:8:58:37:203372,12.16,-17.97,-119.19,-0.07,0.09,1.41,1.41,1.41
6:8:58:37:203373,16.69,-24.38,-119.59,-0.08,0.19,1.21,1.23,1.34
6:8:58:37:203404,21.19,-30.38,-120.26,-0.11,0.19,1.16,1.18,1.27
6:8:58:37:203501,21.85,-31.98,-122.62,-0.11,0.12,1.11,1.12,1.18
6:8:58:37:203645,22.0,-31.73,-125.76,-0.11,0.12,1.04,1.05,1.12
6:8:58:38:204095,18.01,-25.58,-128.28,-0.13,-0.02,0.91,0.92,1.03
6:8:58:38:204128,14.37,-21.0,-123.57,-0.13,0.13,0.93,0.95,0.97
6:8:58:38:204238,17.09,-17.9,-126.49,-0.13,0.09,0.86,0.87,0.91
6:8:58:38:204287,19.59,-13.92,-134.9,-0.16,0.05,0.87,0.89,0.9
6:8:58:38:204463,20.7,-9.46,-143.56,-0.12,0.06,0.84,0.85,0.87
6:8:58:38:204495,21.91,-5.43,-147.86,-0.12,0.03,0.86,0.87,0.87
6:8:58:38:204718,23.34,-3.68,-146.25,-0.09,0.16,0.84,0.86,0.86
6:8:58:39:204981,14.6,6.23,-147.88,-0.08,0.06,0.84,0.85,0.86
6:8:58:39:205093,14.85,4.1,-150.43,-0.11,0.12,0.87,0.89,0.87
6:8:58:39:205189,15.16,2.73,-153.79,-0.09,0.1,0.83,0.84,0.86
6:8:58:39:205285,14.14,0.32,-154.78,-0.06,0.12,0.81,0.82,0.85
6:8:58:39:205413,12.1,-2.86,-154.36,-0.09,0.1,0.81,0.82,0.83
6:8:58:39:205493,10.53,-4.56,-153.18,-0.14,0.09,0.87,0.88,0.84
6:8:58:39:205588,5.36,-2.93,-148.33,-0.15,0.06,0.93,0.95,0.88
6:8:58:40:206000,2.09,-5.77,-141.68,-0.25,-0.04,1.38,1.41,1.08
6:8:58:40:206095,9.98,-11.01,-142.78,-0.29,-0.03,1.41,1.44,1.27
6:8:58:40:206189,13.49,-13.28,-137.74,-0.39,-0.07,1.36,1.41,1.42
6:8:58:40:206304,20.37,-15.12,-141.23,-0.3,-0.01,1.26,1.29,1.38
6:8:58:40:206383,24.69,-12.33,-149.91,-0.23,0.05,1.23,1.25,1.32
6:8:58:40:206495,27.36,-7.29,-159.06,-0.21,0.03,1.1,1.12,1.22
6:8:58:40:206607,30.13,-2.09,-162.18,-0.16,-0.02,1.03,1.05,1.14
6:8:58:41:206985,21.01,-2.37,-151.32,-0.06,0.12,0.88,0.9,1.02
6:8:58:41:207096,22.62,-3.09,-154.56,-0.05,0.11,0.88,0.89,0.94
6:8:58:41:207193,24.45,-6.84,-153.44,-0.07,0.12,0.94,0.95,0.91
6:8:58:41:207288,22.31,-10.59,-148.84,-0.12,0.13,0.93,0.94,0.93
6:8:58:41:207401,17.19,-9.07,-145.94,-0.04,0.14,0.95,0.96,0.95
6:8:58:41:207496,13.22,-9.1,-145.18,-0.07,0.16,0.96,0.98,0.96
6:8:58:41:207593,10.67,-9.79,-148.23,-0.08,0.12,0.98,0.99,0.97
6:8:58:42:207978,3.69,-12.28,-135.88,-0.14,0.03,0.87,0.88,0.95
6:8:58:42:208104,1.57,-12.51,-130.79,-0.18,-0.02,0.81,0.83,0.9
6:8:58:42:208184,0.41,-12.36,-129.21,-0.23,-0.01,0.81,0.84,0.85
6:8:58:42:208313,-1.95,-9.99,-127.47,-0.19,0.0,0.83,0.85,0.84
6:8:58:42:208392,-4.61,-7.39,-127.27,-0.14,-0.01,0.83,0.84,0.84
6:8:58:42:208504,-5.44,-7.79,-129.37,-0.17,-0.0,0.89,0.9,0.86
6:8:58:42:208599,-5.04,-6.95,-133.13,-0.2,-0.02,0.95,0.97,0.9
6:8:58:43:208988,2.23,-6.38,-109.02,-0.16,0.11,1.14,1.16,1.01
6:8:58:43:209088,4.98,-8.71,-113.05,-0.18,0.04,1.16,1.17,1.1
6:8:58:43:209199,6.13,-10.37,-115.61,-0.15,-0.04,1.16,1.17,1.16
6:8:58:43:209295,8.83,-12.9,-109.37,-0.19,0.03,1.19,1.21,1.18
6:8:58:43:209391,11.1,-16.44,-101.84,-0.12,0.09,1.09,1.1,1.16
6:8:58:43:209487,11.33,-21.17,-99.39,-0.15,0.11,1.08,1.1,1.13
6:8:58:43:209599,13.66,-20.75,-104.33,-0.15,0.13,0.99,1.01,1.07
6:8:58:44:209999,7.12,-16.77,-100.17,-0.09,0.14,1.0,1.01,1.04
6:8:58:44:210078,3.34,-17.05,-98.86,-0.07,0.13,0.97,0.98,1.0
6:8:58:44:210190,5.02,-19.3,-106.63,-0.08,0.08,0.91,0.92,0.97
6:8:58:44:210303,10.47,-19.27,-115.02,-0.11,0.05,0.93,0.93,0.94
6:8:58:44:210399,7.48,-18.68,-110.4,-0.14,0.04,0.93,0.94,0.93
6:8:58:44:210495,-0.45,-14.24,-95.89,-0.14,0.06,0.98,0.99,0.95
6:8:58:44:210604,-0.85,-10.39,-88.42,-0.15,0.08,0.89,0.91,0.95
6:8:58:45:210985,14.26,-13.04,-111.85,-0.15,-0.02,0.76,0.77,0.89
6:8:58:45:211098,13.93,-14.74,-94.45,-0.22,0.08,0.78,0.81,0.83
6:8:58:45:211242,10.15,-10.29,-81.37,-0.18,0.15,0.82,0.85,0.81
6:8:58:45:211273,7.24,-3.24,-84.53,-0.11,0.12,0.79,0.81,0.82
6:8:58:45:211399,7.83,-0.58,-101.73,-0.1,0.09,0.81,0.82,0.83
6:8:58:45:211481,7.11,0.39,-117.65,-0.1,0.04,0.91,0.92,0.85
6:8:58:45:211593,4.76,2.18,-116.43,-0.09,-0.0,0.96,0.96,0.9
6:8:58:46:211980,10.17,-8.96,-94.88,-0.11,0.19,1.09,1.11,1.0
6:8:58:46:212088,10.61,-7.28,-103.05,-0.06,0.16,1.05,1.06,1.05
6:8:58:46:212184,9.31,-8.25,-104.39,-0.1,0.1,1.08,1.09,1.09
6:8:58:46:212280,9.04,-11.33,-100.99,-0.15,0.21,1.11,1.13,1.09
6:8:58:46:212393,7.55,-13.12,-98.31,-0.13,0.17,1.06,1.09,1.1
6:8:58:46:212519,7.47,-15.42,-104.67,-0.03,0.28,1.04,1.07,1.1
6:8:58:46:212615,9.34,-17.5,-117.22,-0.05,0.1,0.89,0.9,1.02
6:8:58:47:212994,-1.38,-18.09,-87.77,-0.24,0.02,0.82,0.85,0.94
6:8:58:47:213104,-1.86,-16.08,-86.83,-0.23,0.07,0.82,0.85,0.87
6:8:58:47:213200,-0.01,-17.17,-101.09,-0.23,0.06,0.9,0.93,0.88
6:8:58:47:213266,1.92,-14.07,-118.89,-0.1,-0.01,0.93,0.94,0.9
6:8:58:47:213393,1.67,-10.95,-127.26,-0.11,-0.01,0.96,0.97,0.94
6:8:58:47:213475,4.79,-12.23,-125.52,-0.18,0.01,1.0,1.02,0.97
6:8:58:47:213601,9.13,-14.43,-119.54,-0.21,0.03,0.98,1.01,1.0
6:8:58:48:213983,11.22,-11.05,-124.46,-0.15,0.09,1.11,1.12,1.05
6:8:58:48:214094,11.2,-7.04,-123.92,-0.13,0.12,1.04,1.06,1.06
6:8:58:48:214207,13.26,-7.13,-129.28,-0.12,0.07,1.1,1.11,1.1
6:8:58:48:214287,18.05,-11.57,-134.66,-0.18,0.12,1.11,1.13,1.1
6:8:58:48:214383,18.79,-10.62,-134.24,-0.12,0.11,1.1,1.11,1.12
6:8:58:48:214478,19.18,-11.1,-130.86,-0.09,0.08,1.04,1.05,1.1
6:8:58:48:214591,21.89,-16.33,-130.71,-0.14,0.15,1.09,1.1,1.09
6:8:58:49:214993,19.08,-10.55,-146.33,-0.09,0.09,0.91,0.92,1.02
6:8:58:49:215074,18.87,-10.91,-143.55,-0.1,0.12,0.91,0.92,0.98
6:8:58:49:215169,17.75,-10.0,-143.37,-0.11,0.11,0.87,0.88,0.91
6:8:58:49:215314,18.66,-7.67,-147.9,-0.09,0.1,0.82,0.83,0.88
6:8:58:49:215393,18.93,-5.76,-153.08,-0.11,0.09,0.81,0.82,0.84
6:8:58:49:215489,16.46,-4.01,-155.61,-0.1,0.09,0.85,0.86,0.84
6:8:58:49:215600,12.86,-1.24,-154.03,-0.09,0.09,0.86,0.86,0.85
6:8:58:50:216001,12.67,-1.5,-146.71,-0.16,0.08,0.82,0.84,0.85
6:8:58:50:216097,11.25,-0.63,-147.56,-0.13,0.02,0.8,0.81,0.84
6:8:58:50:216208,11.73,-1.26,-145.12,-0.16,0.02,0.8,0.81,0.82
6:8:58:50:216307,12.95,-2.79,-140.19,-0.16,0.05,0.79,0.8,0.81
6:8:58:50:216400,13.15,-4.65,-135.78,-0.18,0.06,0.79,0.81,0.81
6:8:58:50:216498,11.66,-3.9,-134.81,-0.18,0.04,0.85,0.87,0.83
6:8:58:50:216593,9.99,-2.44,-135.94,-0.2,0.04,0.91,0.93,0.87
6:8:58:51:216996,10.43,-7.2,-127.65,-0.19,0.01,1.2,1.22,1.0
6:8:58:51:217078,12.34,-13.81,-117.31,-0.19,0.1,1.38,1.4,1.18
6:8:58:51:217175,16.4,-17.09,-115.8,-0.22,0.19,1.47,1.5,1.37
6:8:58:51:217284,22.04,-15.97,-128.7,-0.16,0.03,1.45,1.45,1.45
6:8:58:51:217382,30.52,-17.79,-137.69,-0.2,0.02,1.4,1.41,1.45
6:8:58:51:217478,33.66,-20.47,-130.63,-0.15,0.01,1.26,1.27,1.38
6:8:58:51:217574,36.82,-27.9,-123.85,-0.2,0.07,1.11,1.12,1.27
6:8:58:52:217979,35.89,-11.66,-137.79,-0.09,0.05,0.81,0.82,1.07
6:8:58:52:218075,35.02,-13.09,-132.26,-0.08,0.13,0.8,0.82,0.92
6:8:58:52:218185,33.14,-13.94,-126.38,-0.09,0.09,0.83,0.84,0.82
6:8:58:52:218312,29.71,-11.48,-124.03,-0.09,0.13,0.83,0.84,0.83
6:8:58:52:218378,25.66,-7.08,-126.87,-0.07,0.09,0.84,0.85,0.84
6:8:58:52:218490,21.33,-4.36,-131.47,-0.08,0.07,0.88,0.89,0.86
6:8:58:52:218586,16.83,-4.22,-131.67,-0.08,0.07,0.89,0.89,0.88
6:8:58:53:218982,2.21,-6.69,-117.32,-0.09,0.1,0.82,0.83,0.87
6:8:58:53:219094,-1.78,-8.34,-117.49,-0.1,0.06,0.82,0.83,0.85
6:8:58:53:219205,-4.59,-8.57,-114.29,-0.1,0.03,0.82,0.83,0.83
6:8:58:53:219288,-4.2,-8.67,-106.71,-0.13,0.02,0.79,0.8,0.82
6:8:58:53:219414,-2.51,-9.31,-96.78,-0.17,0.01,0.75,0.77,0.8
6:8:58:53:219493,-1.72,-9.08,-89.57,-0.18,0.06,0.78,0.8,0.79
6:8:58:53:219589,-0.85,-9.14,-88.24,-0.17,0.08,0.83,0.85,0.81
6:8:58:54:219987,2.74,-8.54,-83.29,-0.12,0.26,1.47,1.5,1.05
6:8:58:54:220098,10.68,-17.31,-84.51,-0.15,0.31,1.57,1.61,1.32
6:8:58:54:220195,14.47,-19.93,-94.84,0.01,0.15,1.53,1.54,1.55
6:8:58:54:220291,20.27,-27.31,-96.19,-0.04,0.2,1.32,1.34,1.49
6:8:58:54:220388,19.5,-35.09,-91.22,-0.04,0.22,1.22,1.24,1.37
6:8:58:54:220499,13.97,-38.77,-83.74,-0.08,0.21,1.16,1.18,1.25
6:8:58:54:220596,6.92,-40.95,-78.59,-0.1,0.15,1.08,1.09,1.17
6:8:58:55:221032,-9.77,-39.24,-62.74,-0.13,0.08,0.88,0.89,1.05
6:8:58:55:221097,-7.12,-41.74,-68.49,-0.15,0.03,0.91,0.92,0.97
6:8:58:55:221177,-4.64,-41.4,-71.08,-0.13,0.01,0.88,0.9,0.9
6:8:58:55:221289,-6.81,-38.29,-65.87,-0.13,0.04,0.96,0.97,0.93
6:8:58:55:221383,-8.51,-33.1,-59.81,-0.14,0.05,0.94,0.95,0.94
6:8:58:55:221480,-3.17,-27.68,-60.53,-0.14,0.09,0.95,0.96,0.96
6:8:58:55:221592,1.35,-26.03,-65.7,-0.13,0.08,0.93,0.94,0.95
6:8:58:56:221984,5.93,-20.69,-73.61,-0.08,0.16,0.87,0.89,0.93
6:8:58:56:222110,8.02,-17.1,-80.58,0.02,0.17,0.87,0.89,0.91
6:8:58:56:222191,8.13,-14.02,-86.9,0.07,0.24,0.87,0.9,0.89
6:8:58:56:222289,9.29,-15.38,-90.05,-0.03,0.27,0.91,0.95,0.91
6:8:58:56:222399,9.54,-12.22,-92.11,-0.01,0.28,0.98,1.02,0.96
6:8:58:56:222496,6.67,-7.47,-92.39,0.02,0.17,1.02,1.04,1.0
6:8:58:56:222623,5.8,-7.79,-89.7,-0.03,0.3,1.1,1.14,1.07
6:8:58:57:222986,4.76,-16.01,-96.82,-0.06,0.15,1.06,1.07,1.08
6:8:58:57:223082,9.04,-19.62,-103.93,-0.06,0.11,1.07,1.07,1.09
6:8:58:57:223209,16.04,-20.64,-116.78,-0.12,0.07,0.98,0.99,1.04
6:8:58:57:223289,15.69,-19.27,-126.45,-0.1,0.16,1.04,1.05,1.04
6:8:58:57:223400,10.47,-18.9,-126.56,-0.06,0.17,1.13,1.15,1.06
6:8:58:57:223482,7.48,-16.53,-120.56,-0.04,0.11,1.16,1.17,1.12
6:8:58:57:223611,5.03,-16.7,-113.45,-0.14,0.08,1.2,1.21,1.17
6:8:58:58:223990,21.42,-34.48,-138.17,-0.16,0.1,1.1,1.12,1.17
6:8:58:58:224087,17.6,-31.45,-134.46,-0.1,0.1,0.98,0.99,1.11
6:8:58:58:224183,15.74,-30.75,-131.6,-0.11,0.12,0.91,0.92,1.01
6:8:58:58:224294,16.91,-30.82,-135.71,-0.13,0.1,0.91,0.92,0.95
6:8:58:58:224390,19.84,-27.79,-143.12,-0.12,0.09,0.89,0.9,0.92
6:8:58:58:224502,20.27,-23.05,-147.93,-0.1,0.05,0.88,0.88,0.9
6:8:58:58:224613,18.5,-19.75,-146.41,-0.1,0.05,0.86,0.86,0.88
6:8:58:59:224988,16.32,-5.8,-148.87,-0.12,0.06,0.82,0.83,0.86
6:8:58:59:225115,15.84,-3.97,-147.48,-0.1,0.13,0.83,0.85,0.85
6:8:58:59:225180,16.94,-4.26,-145.03,-0.13,0.12,0.84,0.85,0.84
6:8:58:59:225291,17.06,-4.6,-144.59,-0.09,0.06,0.8,0.81,0.84
6:8:58:59:225387,18.23,-6.65,-142.18,-0.07,0.1,0.8,0.81,0.82
6:8:58:59:225483,20.88,-11.69,-138.97,-0.11,0.14,0.78,0.8,0.81
6:8:58:59:225596,20.75,-12.66,-138.5,-0.11,0.12,0.79,0.81,0.81
6:8:59:0:225986,10.81,-12.98,-128.18,-0.16,0.08,1.12,1.14,0.92
6:8:59:0:226081,10.1,-13.33,-123.61,-0.11,-0.01,1.2,1.21,1.05
6:8:59:0:226176,16.17,-21.09,-119.44,-0.21,0.13,1.32,1.34,1.23
6:8:59:0:226272,18.06,-26.8,-118.48,-0.18,0.12,1.45,1.47,1.34
6:8:59:0:226386,25.27,-28.43,-126.51,-0.17,0.09,1.44,1.46,1.42
6:8:59:0:226481,35.3,-28.89,-135.87,-0.15,0.01,1.42,1.43,1.45
6:8:59:0:226576,40.36,-35.38,-133.82,-0.2,0.1,1.32,1.34,1.41
6:8:59:1:226981,37.36,-24.97,-136.69,-0.12,0.06,1.02,1.03,1.26
6:8:59:1:227078,29.32,-22.31,-127.59,-0.1,0.15,0.97,0.99,1.12
6:8:59:1:227173,22.31,-18.31,-122.26,-0.07,0.09,0.88,0.89,0.97
6:8:59:1:227300,21.35,-16.81,-125.35,-0.09,0.08,0.89,0.9,0.93
6:8:59:1:227379,22.84,-16.12,-130.09,-0.1,0.06,0.89,0.9,0.9
6:8:59:1:227477,21.87,-15.98,-128.53,-0.1,0.06,0.9,0.91,0.9
6:8:59:1:227572,20.44,-16.66,-123.97,-0.11,0.08,0.88,0.89,0.9
6:8:59:2:227980,8.09,-11.18,-122.52,-0.11,0.09,0.88,0.89,0.9
6:8:59:2:228092,4.25,-8.79,-120.46,-0.13,0.1,0.86,0.87,0.89
6:8:59:2:228189,1.76,-6.99,-119.68,-0.14,0.04,0.85,0.87,0.88
6:8:59:2:228285,0.49,-6.61,-119.16,-0.11,0.05,0.86,0.87,0.87
6:8:59:2:228395,-0.56,-7.57,-117.55,-0.11,0.06,0.88,0.88,0.87
6:8:59:2:228492,0.7,-9.07,-116.63,-0.11,0.08,0.83,0.84,0.87
6:8:59:2:228589,2.58,-8.33,-115.65,-0.12,0.03,0.83,0.84,0.85
6:8:59:3:228982,-0.68,-2.07,-109.16,-0.14,0.11,0.98,1.0,0.89
6:8:59:3:229079,-0.3,-2.0,-113.32,-0.08,-0.03,1.07,1.07,0.97
6:8:59:3:229176,3.72,-5.38,-109.79,-0.1,0.08,1.13,1.13,1.07
6:8:59:3:229288,7.95,-8.45,-103.64,-0.2,0.2,1.29,1.32,1.18
6:8:59:3:229384,8.85,-8.12,-100.26,-0.1,0.07,1.31,1.32,1.26
6:8:59:3:229480,15.34,-15.07,-100.29,-0.17,0.18,1.3,1.32,1.32
6:8:59:3:229590,17.1,-16.65,-104.49,-0.16,0.11,1.37,1.38,1.34
6:8:59:4:229979,22.0,-21.89,-106.57,-0.08,0.05,0.98,0.99,1.23
6:8:59:4:230092,23.28,-22.47,-110.07,-0.09,0.1,0.91,0.93,1.1
6:8:59:4:230173,25.74,-23.82,-114.02,-0.13,0.11,0.9,0.92,0.94
6:8:59:4:230269,24.38,-22.76,-113.78,-0.07,0.07,0.89,0.89,0.91
6:8:59:4:230395,22.13,-22.86,-112.5,-0.09,0.11,0.85,0.86,0.89
6:8:59:4:230509,18.23,-21.53,-110.42,-0.09,0.1,0.82,0.83,0.86
6:8:59:4:230572,16.12,-19.71,-109.2,-0.09,0.09,0.83,0.84,0.85
6:8:59:5:231003,10.64,-11.63,-106.07,-0.13,0.09,0.93,0.94,0.87
6:8:59:5:231083,9.64,-10.12,-107.31,-0.13,0.08,0.94,0.95,0.91
6:8:59:5:231179,7.76,-9.01,-108.83,-0.08,0.1,0.92,0.93,0.94
6:8:59:5:231306,6.32,-8.33,-107.6,-0.1,0.09,0.94,0.95,0.94
6:8:59:5:231385,6.09,-6.91,-105.26,-0.08,0.1,0.86,0.87,0.92
6:8:59:5:231483,6.54,-6.63,-103.13,-0.1,0.09,0.91,0.92,0.91
6:8:59:5:231593,6.17,-3.53,-99.32,-0.12,0.08,0.84,0.85,0.88
6:8:59:6:231992,2.55,-2.09,-108.6,-0.05,0.04,0.85,0.85,0.87
6:8:59:6:232105,6.78,-6.13,-111.07,-0.11,0.12,0.89,0.91,0.87
6:8:59:6:232184,4.89,-4.97,-106.67,-0.11,0.13,1.01,1.02,0.93
6:8:59:6:232297,1.54,-1.83,-99.81,-0.11,0.1,1.11,1.12,1.02
6:8:59:6:232409,0.36,-0.12,-93.03,-0.11,0.13,1.16,1.17,1.11
6:8:59:6:232512,1.53,-3.88,-92.56,-0.07,0.12,1.27,1.28,1.19
6:8:59:6:232570,8.39,-13.75,-96.25,-0.12,0.13,1.4,1.41,1.29
6:8:59:7:232992,19.56,-30.25,-104.34,-0.1,0.05,1.05,1.06,1.25
6:8:59:7:233088,18.82,-29.65,-100.51,-0.15,0.13,1.0,1.02,1.16
6:8:59:7:233184,13.6,-24.45,-97.04,-0.12,0.09,0.93,0.94,1.01
6:8:59:7:233280,11.78,-23.27,-99.52,-0.11,0.07,0.87,0.88,0.95
6:8:59:7:233376,10.02,-23.09,-101.44,-0.11,0.07,0.84,0.85,0.89
6:8:59:7:233472,10.79,-21.9,-102.19,-0.1,0.08,0.87,0.88,0.87
6:8:59:7:233628,12.17,-20.46,-102.91,-0.11,0.1,0.88,0.89,0.87
6:8:59:8:233983,12.83,-13.67,-101.14,-0.1,0.13,0.9,0.91,0.9
6:8:59:8:234080,12.03,-11.89,-101.21,-0.11,0.12,0.96,0.97,0.93
6:8:59:8:234177,9.98,-8.42,-104.03,-0.12,0.09,0.95,0.96,0.95
6:8:59:8:234289,8.55,-5.72,-105.45,-0.09,0.07,0.92,0.92,0.95
6:8:59:8:234384,9.08,-4.72,-104.12,-0.09,0.11,0.91,0.93,0.94
6:8:59:8:234480,7.63,-3.8,-102.47,-0.11,0.14,0.94,0.96,0.94
6:8:59:8:234592,2.92,-2.04,-104.15,-0.1,0.11,0.96,0.97,0.95
6:8:59:9:235000,3.98,-7.86,-101.99,-0.09,0.17,0.85,0.87,0.93
6:8:59:9:235114,3.59,-10.01,-104.79,-0.09,0.13,0.82,0.83,0.89
6:8:59:9:235194,0.29,-10.09,-108.58,-0.07,0.1,0.77,0.78,0.83
6:8:59:9:235289,-2.07,-9.38,-109.37,-0.06,0.08,0.76,0.76,0.79
6:8:59:9:235385,-2.14,-8.99,-105.11,-0.11,0.04,0.76,0.77,0.77
6:8:59:9:235494,-2.68,-5.12,-96.4,-0.24,0.06,0.96,0.99,0.84
6:8:59:9:235593,-5.04,1.92,-88.52,-0.13,0.04,0.98,0.99,0.92
6:8:59:10:235983,11.3,-17.31,-113.95,-0.31,0.11,1.9,1.93,1.3
6:8:59:10:236095,13.35,-17.02,-110.86,0.02,0.18,1.58,1.59,1.51
6:8:59:10:236190,28.12,-29.41,-117.27,-0.22,0.21,1.56,1.59,1.7
6:8:59:10:236285,34.42,-34.13,-122.6,-0.17,0.14,1.45,1.47,1.55
6:8:59:10:236382,33.29,-34.97,-122.01,-0.14,0.12,1.18,1.2,1.42
6:8:59:10:236480,28.19,-33.38,-119.55,-0.11,0.09,0.99,1.0,1.22
6:8:59:10:236591,27.29,-31.45,-120.81,-0.12,0.11,0.9,0.91,1.04
6:8:59:11:236996,22.38,-17.64,-128.93,-0.07,0.1,0.79,0.8,0.9
6:8:59:11:237094,20.41,-14.87,-122.76,-0.07,0.13,0.8,0.81,0.84
6:8:59:11:237175,17.1,-11.16,-120.89,-0.08,0.17,0.85,0.87,0.83
6:8:59:11:237286,14.91,-7.51,-123.95,-0.1,0.11,0.87,0.88,0.86
6:8:59:11:237397,14.22,-4.43,-127.55,-0.05,0.11,0.88,0.89,0.88
6:8:59:11:237494,12.19,-3.02,-127.3,-0.05,0.12,0.9,0.91,0.9
6:8:59:11:237590,9.57,-2.26,-123.52,-0.07,0.13,0.89,0.9,0.9
6:8:59:12:237984,6.19,-3.28,-118.88,-0.1,0.11,0.83,0.85,0.89
6:8:59:12:238081,7.28,-5.07,-118.87,-0.11,-0.0,0.76,0.77,0.84
6:8:59:12:238223,10.51,-8.53,-117.71,-0.14,-0.0,0.69,0.71,0.78
6:8:59:12:238272,11.39,-12.91,-115.44,-0.18,0.19,0.75,0.8,0.76
6:8:59:12:238367,7.03,-12.31,-110.27,-0.19,0.03,0.83,0.85,0.78
6:8:59:12:238479,1.44,-6.88,-102.62,-0.2,0.01,0.98,1.0,0.88
6:8:59:12:238575,0.28,-4.93,-98.93,-0.14,0.08,0.99,1.0,0.95
6:8:59:13:238988,17.0,-21.08,-115.02,-0.24,0.02,1.33,1.35,1.12
6:8:59:13:239084,19.5,-23.0,-111.66,-0.2,0.02,1.3,1.31,1.22
6:8:59:13:239194,24.3,-23.98,-113.34,-0.21,-0.09,1.22,1.24,1.3
6:8:59:13:239276,29.66,-21.83,-120.65,-0.19,0.06,1.18,1.2,1.25
6:8:59:13:239404,33.75,-17.21,-126.48,-0.15,0.02,1.08,1.1,1.18
6:8:59:13:239484,34.51,-14.57,-127.06,-0.13,0.04,0.98,0.99,1.09
6:8:59:13:239580,33.54,-13.84,-124.68,-0.11,0.09,0.88,0.89,0.99
6:8:59:14:239995,31.59,-3.26,-133.39,-0.01,0.12,0.83,0.84,0.91
6:8:59:14:240075,29.02,-6.3,-129.69,-0.03,0.14,0.87,0.88,0.87
6:8:59:14:240171,26.19,-8.33,-124.91,-0.03,0.16,0.9,0.92,0.88
6:8:59:14:240266,23.71,-9.24,-121.68,-0.05,0.18,0.91,0.93,0.91
6:8:59:14:240394,20.91,-8.57,-122.31,-0.06,0.16,0.93,0.94,0.93
6:8:59:14:240490,19.3,-8.57,-127.74,-0.08,0.12,0.94,0.95,0.94
6:8:59:14:240586,17.74,-9.66,-132.88,-0.12,0.11,0.93,0.94,0.95
6:8:59:15:240977,8.03,-12.38,-121.16,-0.14,0.09,0.86,0.88,0.92
6:8:59:15:241104,5.29,-12.99,-119.41,-0.22,-0.0,0.85,0.87,0.9
6:8:59:15:241184,3.95,-12.69,-118.37,-0.2,0.0,0.85,0.87,0.87
6:8:59:15:241296,4.43,-11.28,-117.35,-0.2,-0.04,0.86,0.88,0.88
6:8:59:15:241392,4.48,-10.7,-113.62,-0.2,-0.06,0.84,0.87,0.87
6:8:59:15:241489,7.79,-13.65,-110.99,-0.16,-0.02,0.78,0.8,0.85
6:8:59:15:241601,13.37,-19.2,-111.43,-0.2,0.05,0.79,0.81,0.82
6:8:59:16:242017,10.51,-12.39,-107.22,-0.18,0.04,1.25,1.27,0.96
6:8:59:16:242079,16.47,-24.13,-96.11,-0.2,0.2,1.34,1.37,1.15
6:8:59:16:242174,18.88,-25.59,-97.23,-0.24,0.18,1.36,1.39,1.34
6:8:59:16:242271,19.34,-20.57,-110.16,-0.12,0.01,1.22,1.22,1.33
6:8:59:16:242367,25.98,-20.77,-121.1,-0.12,0.01,1.15,1.15,1.26
6:8:59:16:242477,29.22,-25.67,-115.61,-0.17,0.08,1.11,1.12,1.17
6:8:59:16:242591,26.28,-31.16,-103.91,-0.18,0.13,1.03,1.05,1.11
6:8:59:17:242978,17.65,-21.56,-109.67,-0.1,0.07,0.89,0.89,1.02
6:8:59:17:243075,14.62,-21.04,-103.74,-0.12,0.07,0.89,0.9,0.95
6:8:59:17:243183,9.91,-20.51,-95.24,-0.13,0.07,0.89,0.9,0.9
6:8:59:17:243298,8.49,-19.0,-92.7,-0.12,0.1,0.88,0.89,0.9
6:8:59:17:243377,9.37,-16.59,-97.16,-0.12,0.07,0.9,0.91,0.9
6:8:59:17:243490,10.28,-14.65,-102.3,-0.11,0.06,0.9,0.91,0.9
6:8:59:17:243600,9.44,-12.45,-101.89,-0.1,0.06,0.9,0.91,0.91
6:8:59:18:243980,8.94,-6.61,-94.95,-0.09,0.1,0.86,0.87,0.9
6:8:59:18:244075,6.91,-5.01,-97.43,-0.05,0.08,0.81,0.82,0.87
6:8:59:18:244171,7.77,-5.03,-98.85,-0.08,0.12,0.83,0.84,0.84
6:8:59:18:244298,6.98,-3.93,-99.24,-0.06,0.1,0.86,0.87,0.84
6:8:59:18:244395,6.67,-3.14,-99.95,-0.06,0.11,0.86,0.86,0.86
6:8:59:18:244490,6.25,-2.84,-97.74,-0.06,0.09,0.91,0.92,0.88
6:8:59:18:244571,6.46,-2.4,-90.09,-0.07,0.14,1.06,1.07,0.95
6:8:59:19:245000,13.73,-13.72,-98.81,-0.12,0.09,1.26,1.27,1.09
6:8:59:19:245097,14.34,-14.65,-99.99,-0.08,0.1,1.23,1.24,1.19
6:8:59:19:245192,15.86,-20.15,-95.02,-0.1,0.12,1.21,1.22,1.24
6:8:59:19:245289,20.25,-26.69,-93.95,-0.13,0.21,1.1,1.13,1.19
6:8:59:19:245385,20.03,-27.5,-97.37,-0.12,0.13,1.05,1.06,1.14
6:8:59:19:245501,16.17,-24.18,-99.58,-0.07,0.15,0.97,0.98,1.06
6:8:59:19:245594,16.32,-24.32,-100.12,-0.09,0.07,0.9,0.91,0.99
6:8:59:20:245982,11.11,-21.12,-100.48,-0.11,0.08,0.85,0.86,0.92
6:8:59:20:246095,10.27,-20.14,-100.9,-0.1,-0.03,0.86,0.87,0.88
6:8:59:20:246174,9.47,-18.21,-99.49,-0.1,0.12,0.91,0.93,0.89
6:8:59:20:246270,9.7,-17.21,-98.36,-0.12,0.09,0.9,0.91,0.9
6:8:59:20:246397,10.12,-15.73,-99.85,-0.12,0.1,0.91,0.92,0.92
6:8:59:20:246492,10.39,-13.55,-103.23,-0.11,0.09,0.93,0.94,0.92
6:8:59:20:246590,9.26,-10.88,-103.75,-0.1,0.09,0.94,0.95,0.94
6:8:59:21:246979,7.66,-1.19,-98.63,-0.1,0.1,0.85,0.86,0.92
6:8:59:21:247106,8.08,0.04,-101.78,-0.07,0.15,0.82,0.84,0.88
6:8:59:21:247171,8.36,-1.02,-104.63,-0.05,0.15,0.8,0.82,0.84
6:8:59:21:247297,9.22,-2.8,-107.89,-0.08,0.1,0.78,0.79,0.81
6:8:59:21:247394,9.28,-3.05,-110.24,-0.1,0.11,0.77,0.79,0.8
6:8:59:21:247491,4.1,-1.23,-110.61,-0.1,0.11,0.88,0.89,0.82
6:8:59:21:247587,-0.24,1.01,-106.99,-0.07,0.11,0.95,0.96,0.88
6:8:59:22:247983,11.98,-11.47,-101.02,-0.22,0.19,1.24,1.27,1.04
6:8:59:22:248096,10.6,-9.01,-110.58,-0.1,0.02,1.37,1.38,1.2
6:8:59:22:248175,13.7,-10.52,-113.12,-0.15,0.01,1.35,1.36,1.34
6:8:59:22:248288,20.36,-17.43,-108.85,-0.3,0.05,1.4,1.43,1.39
6:8:59:22:248383,22.88,-20.73,-103.78,-0.24,0.04,1.32,1.34,1.38
6:8:59:22:248509,28.95,-20.72,-111.92,-0.27,0.06,1.25,1.28,1.35
6:8:59:22:248575,34.03,-15.12,-124.4,-0.21,0.04,1.17,1.19,1.27
6:8:59:23:249018,33.92,-12.01,-124.02,-0.12,0.09,0.87,0.88,1.12
6:8:59:23:249067,33.22,-10.41,-125.34,-0.1,0.12,0.85,0.87,0.98
6:8:59:23:249211,30.8,-6.73,-130.45,-0.12,0.07,0.87,0.88,0.88
6:8:59:23:249291,29.43,-4.67,-134.44,-0.11,0.1,0.92,0.93,0.89
6:8:59:23:249403,26.68,-1.88,-135.01,-0.07,0.17,0.93,0.95,0.92
6:8:59:23:249483,22.0,-0.45,-134.29,-0.06,0.1,0.85,0.85,0.91
6:8:59:23:249578,21.0,-3.12,-133.16,-0.08,0.12,0.86,0.88,0.89
6:8:59:24:249995,15.9,-6.33,-137.63,-0.09,0.07,0.78,0.79,0.84
6:8:59:24:250075,15.54,-8.45,-135.58,-0.13,0.1,0.75,0.77,0.81
6:8:59:24:250202,12.44,-7.36,-132.76,-0.17,0.03,0.75,0.77,0.78
6:8:59:24:250283,10.17,-6.33,-128.4,-0.1,0.03,0.73,0.74,0.76
6:8:59:24:250395,10.76,-8.74,-123.63,-0.18,0.08,0.75,0.77,0.76
6:8:59:24:250491,10.29,-7.14,-119.99,-0.18,0.04,0.81,0.83,0.78
6:8:59:24:250586,9.58,-5.55,-118.96,-0.18,-0.0,0.79,0.81,0.8
6:8:59:26:251983,12.69,-23.51,-102.82,-0.08,0.1,0.94,0.95,0.86
6:8:59:26:252079,8.69,-23.0,-95.95,-0.14,0.09,0.93,0.95,0.9
6:8:59:26:252189,6.88,-22.68,-92.54,-0.12,0.09,0.92,0.93,0.94
6:8:59:26:252287,7.72,-23.36,-93.37,-0.1,0.09,0.91,0.92,0.93
6:8:59:26:252383,9.01,-22.85,-94.28,-0.11,0.05,0.89,0.9,0.92
6:8:59:26:252479,9.92,-22.48,-93.5,-0.11,0.04,0.88,0.89,0.91
6:8:59:26:252575,10.11,-22.97,-91.88,-0.16,-0.05,0.88,0.89,0.9
6:8:59:27:252994,5.87,-13.48,-85.66,-0.12,0.02,0.9,0.9,0.9
6:8:59:27:253089,4.79,-11.7,-81.45,-0.1,0.08,0.91,0.92,0.9
6:8:59:27:253200,3.42,-9.28,-77.77,-0.09,0.1,0.9,0.91,0.91
6:8:59:27:253281,1.48,-7.17,-75.01,-0.06,0.12,0.91,0.92,0.92
6:8:59:27:253393,-0.03,-6.22,-72.45,-0.06,0.13,0.92,0.93,0.92
6:8:59:27:253489,-0.54,-5.88,-70.48,-0.06,0.15,0.91,0.93,0.93
6:8:59:27:253569,-2.27,-5.91,-70.7,-0.05,0.14,0.93,0.95,0.93
6:8:59:28:253990,-6.04,-8.64,-65.9,-0.02,0.16,0.93,0.95,0.94
6:8:59:28:254100,-5.28,-10.48,-65.37,-0.02,0.17,0.98,0.99,0.96
6:8:59:28:254198,-1.21,-9.42,-61.74,-0.04,0.21,0.93,0.96,0.97
6:8:59:28:254279,-1.73,-7.1,-57.92,-0.04,0.17,0.99,1.0,0.98
6:8:59:28:254374,-3.04,-6.64,-57.31,-0.04,0.18,1.05,1.07,1.01
6:8:59:28:254470,-4.76,-9.06,-59.54,-0.03,0.17,1.08,1.1,1.06
6:8:59:28:254580,-4.46,-13.73,-60.59,-0.05,0.19,1.15,1.17,1.11
6:8:59:29:254986,-6.51,-32.09,-53.91,-0.07,0.2,1.13,1.15,1.14
6:8:59:29:255083,-7.53,-36.45,-49.14,-0.12,0.26,1.16,1.2,1.17
6:8:59:29:255180,-6.21,-40.44,-53.62,-0.07,0.11,1.06,1.07,1.14
6:8:59:29:255276,-2.85,-45.53,-58.28,-0.04,0.1,1.0,1.01,1.09
6:8:59:29:255372,-1.53,-48.99,-56.1,-0.12,0.14,1.04,1.06,1.04
6:8:59:29:255484,-1.97,-45.6,-52.72,-0.11,0.12,1.01,1.02,1.03
6:8:59:29:255597,-2.89,-41.08,-51.91,-0.09,0.13,0.93,0.95,1.01
6:8:59:30:255988,-10.82,-43.85,-50.7,-0.09,0.12,0.91,0.92,0.96
6:8:59:30:256067,-16.48,-46.01,-45.2,-0.05,0.12,0.86,0.86,0.91
6:8:59:30:256196,-19.93,-48.72,-39.15,-0.07,0.17,0.87,0.89,0.89
6:8:59:30:256309,-23.76,-51.5,-33.55,-0.07,0.18,0.88,0.9,0.89
6:8:59:30:256402,-25.78,-53.79,-33.14,-0.1,0.15,0.88,0.9,0.9
6:8:59:30:256468,-25.3,-55.38,-37.11,-0.06,0.1,0.88,0.89,0.9
6:8:59:30:256579,-27.85,-54.77,-34.78,-0.06,0.08,0.95,0.95,0.91
6:8:59:31:257009,-10.66,-49.22,-48.88,-0.13,0.09,1.13,1.14,0.99
6:8:59:31:257066,-4.87,-51.66,-55.1,-0.13,0.11,1.09,1.11,1.07
6:8:59:31:257210,-2.6,-54.15,-57.74,-0.13,0.14,1.16,1.17,1.14
6:8:59:31:257409,0.17,-57.99,-60.33,-0.08,0.16,1.1,1.11,1.13
6:8:59:31:257411,18.86,-63.34,-76.43,-0.1,0.17,1.09,1.11,1.13
6:8:59:31:257490,42.06,-64.34,-101.78,-0.14,0.11,1.15,1.17,1.13
6:8:59:32:257937,36.94,-64.84,-100.06,-0.15,0.12,1.26,1.27,1.18
6:8:59:32:258018,61.98,-63.62,-126.31,-0.09,0.11,1.04,1.05,1.16
6:8:59:32:258076,46.5,-55.18,-118.2,-0.02,0.12,0.97,0.98,1.1
6:8:59:32:258186,46.35,-50.8,-122.8,-0.09,0.19,1.0,1.03,1.02
6:8:59:32:258297,45.96,-40.81,-129.21,-0.08,0.14,0.99,1.0,1.0
6:8:59:32:258395,45.4,-31.74,-139.58,-0.09,0.09,0.92,0.92,0.98
6:8:59:32:258490,48.75,-29.27,-150.89,-0.1,0.08,0.92,0.93,0.95
6:8:59:32:258587,48.19,-29.61,-153.62,-0.07,0.12,0.92,0.93,0.93
6:8:59:33:258985,48.82,-15.38,-174.67,-0.1,0.09,0.92,0.93,0.93
6:8:59:33:259082,47.66,-13.71,-174.19,-0.08,0.05,0.92,0.93,0.93
6:8:59:33:259178,43.61,-14.67,-170.66,-0.1,0.05,0.92,0.93,0.93
6:8:59:33:259290,41.35,-14.1,-169.13,-0.12,0.07,0.95,0.96,0.94
6:8:59:33:259369,37.52,-11.7,-170.87,-0.13,0.06,0.96,0.97,0.95
6:8:59:33:259480,37.81,-8.29,-173.77,-0.12,0.04,0.94,0.95,0.96
6:8:59:33:259609,40.59,-6.18,-175.29,-0.12,0.03,0.91,0.92,0.95
6:8:59:34:259992,51.42,-3.27,-176.18,-0.09,0.06,0.9,0.91,0.92
6:8:59:34:260088,50.97,-1.0,-177.85,-0.08,0.09,0.96,0.96,0.93
6:8:59:34:260184,45.21,-0.32,-177.95,-0.11,0.05,0.99,1.0,0.96
6:8:59:34:260310,46.87,-1.46,-178.48,-0.2,0.01,1.07,1.09,1.02
6:8:59:34:260375,51.13,-6.27,-175.97,-0.21,0.0,1.2,1.22,1.1
6:8:59:34:260486,56.23,-11.55,-170.81,-0.14,0.05,1.18,1.19,1.16
6:8:59:34:260583,62.18,-16.42,-171.56,-0.19,0.1,1.16,1.17,1.19
6:8:59:35:260991,77.69,-3.94,177.65,-0.17,0.1,1.1,1.11,1.16
6:8:59:35:261086,80.95,-4.84,175.98,-0.17,0.14,1.11,1.13,1.14
6:8:59:35:261183,82.11,-1.26,174.87,-0.14,0.07,1.04,1.05,1.1
6:8:59:35:261278,74.67,3.82,173.11,-0.14,0.06,1.0,1.01,1.06
6:8:59:35:261390,66.47,4.59,170.27,-0.11,0.04,0.99,1.0,1.02
6:8:59:35:261486,59.5,1.4,170.97,-0.11,0.09,0.95,0.96,0.99
6:8:59:35:261582,57.59,-0.06,171.28,-0.12,0.1,0.91,0.92,0.96
6:8:59:36:261981,61.59,1.35,172.33,-0.1,0.09,0.92,0.93,0.94
6:8:59:36:262108,61.51,0.35,172.95,-0.11,0.07,0.9,0.91,0.92
6:8:59:36:262188,62.06,0.58,173.06,-0.12,0.12,0.93,0.94,0.93
6:8:59:36:262284,62.94,0.31,173.14,-0.12,0.06,0.91,0.92,0.92
6:8:59:36:262397,60.9,-0.33,173.57,-0.14,0.04,0.95,0.97,0.94
6:8:59:36:262478,54.4,-2.22,175.01,-0.13,0.05,0.95,0.96,0.95
6:8:59:36:262574,48.37,-4.47,176.42,-0.14,0.08,0.97,0.98,0.97
6:8:59:37:262982,32.93,-9.11,-170.33,-0.12,0.11,0.93,0.94,0.96
6:8:59:37:263094,29.81,-10.83,-164.01,-0.17,0.1,0.97,0.99,0.97
6:8:59:37:263175,30.49,-10.33,-162.14,-0.12,0.02,0.91,0.91,0.95
6:8:59:37:263271,30.97,-8.85,-162.78,-0.14,-0.03,0.93,0.94,0.95
6:8:59:37:263396,27.18,-7.58,-160.78,-0.15,0.01,1.0,1.02,0.96
6:8:59:37:263492,26.85,-9.75,-154.27,-0.15,0.05,1.04,1.05,1.0
6:8:59:37:263591,27.26,-12.62,-146.81,-0.14,0.12,1.08,1.09,1.05
6:8:59:38:264007,38.98,-20.71,-147.0,-0.13,0.14,1.03,1.05,1.06
6:8:59:38:264087,32.37,-23.81,-134.44,-0.15,0.11,1.01,1.03,1.06
6:8:59:38:264182,25.88,-17.94,-131.98,-0.12,0.07,0.94,0.95,1.01
6:8:59:38:264278,25.08,-16.39,-138.13,-0.12,0.1,0.99,1.0,0.99
6:8:59:38:264389,22.05,-13.85,-141.1,-0.09,0.09,0.97,0.98,0.98
6:8:59:38:264487,20.31,-11.4,-140.62,-0.1,0.09,0.93,0.94,0.97
6:8:59:38:264582,18.4,-11.18,-135.03,-0.1,0.08,0.93,0.94,0.95
6:8:59:39:264989,9.92,-8.86,-126.67,-0.04,0.02,0.96,0.97,0.95
6:8:59:39:265085,10.41,-9.13,-121.99,-0.1,0.15,1.01,1.03,0.98
6:8:59:39:265181,8.5,-7.3,-116.06,-0.14,0.12,1.0,1.02,1.0
6:8:59:39:265277,6.09,-5.75,-113.66,-0.1,0.05,0.95,0.95,1.0
6:8:59:39:265388,6.28,-6.1,-115.46,-0.11,0.1,0.97,0.98,0.98
6:8:59:39:265484,5.94,-6.27,-118.48,-0.11,0.08,1.03,1.04,0.99
6:8:59:39:265580,5.08,-5.0,-118.76,-0.11,0.07,0.98,0.99,1.0
6:8:59:40:265975,5.37,-4.07,-110.55,-0.12,0.1,0.86,0.87,0.97
6:8:59:40:266072,2.39,-4.05,-112.4,-0.11,0.02,0.84,0.85,0.9
6:8:59:40:266183,-0.27,-3.33,-112.14,-0.08,0.06,0.88,0.88,0.87
6:8:59:40:266295,-1.37,0.24,-107.02,-0.09,0.1,0.92,0.93,0.89
6:8:59:40:266375,0.27,1.54,-100.94,-0.09,0.12,0.87,0.88,0.9
6:8:59:40:266471,1.23,-1.65,-100.27,-0.12,0.11,0.93,0.94,0.92
6:8:59:40:266598,3.12,-4.66,-103.95,-0.12,0.12,1.05,1.06,0.96
6:8:59:41:266987,8.01,-7.64,-90.14,-0.08,0.17,1.27,1.28,1.1
6:8:59:41:267084,10.36,-14.8,-98.12,-0.17,0.07,1.36,1.37,1.24
6:8:59:41:267211,14.59,-17.36,-104.75,-0.1,0.13,1.29,1.31,1.32
6:8:59:41:267291,16.34,-19.47,-104.32,-0.13,0.1,1.19,1.2,1.29
6:8:59:41:267388,14.72,-22.6,-98.29,-0.15,0.12,1.06,1.08,1.2
6:8:59:41:267484,14.41,-23.95,-95.12,-0.15,0.09,1.01,1.02,1.1
6:8:59:41:267579,12.96,-21.78,-96.46,-0.15,0.1,0.97,0.99,1.03
6:8:59:42:267983,5.13,-15.42,-93.15,-0.1,0.07,0.87,0.88,0.96
6:8:59:42:268078,2.37,-15.36,-92.84,-0.15,0.03,0.92,0.93,0.93
6:8:59:42:268174,-0.11,-15.44,-95.17,-0.12,0.04,0.91,0.92,0.91
6:8:59:42:268271,-2.15,-15.96,-95.28,-0.12,0.09,0.87,0.88,0.91
6:8:59:42:268382,-5.42,-14.48,-89.85,-0.11,0.09,0.86,0.87,0.89
6:8:59:42:268494,-7.98,-12.69,-82.77,-0.12,0.07,0.89,0.9,0.88
6:8:59:42:268591,-9.19,-11.93,-78.95,-0.11,0.08,0.88,0.89,0.89
6:8:59:43:268975,-10.05,-2.52,-70.07,-0.05,0.11,0.91,0.92,0.9
6:8:59:43:269085,-7.64,-1.92,-65.87,-0.07,0.12,0.93,0.94,0.92
6:8:59:43:269199,-3.36,-1.23,-66.35,-0.1,0.13,1.03,1.04,0.97
6:8:59:43:269278,-4.76,5.22,-67.62,0.03,0.1,0.91,0.91,0.96
6:8:59:43:269391,-0.88,0.7,-67.0,-0.02,0.22,0.96,0.98,0.98
6:8:59:43:269518,4.78,-4.09,-71.48,-0.02,0.23,1.0,1.03,0.97
6:8:59:43:269581,8.77,-4.05,-78.12,0.02,0.2,0.96,0.98,1.0
6:8:59:44:270003,9.89,-1.13,-55.73,-0.14,0.27,1.25,1.29,1.1
6:8:59:44:270084,10.91,-10.65,-63.1,-0.09,0.3,1.35,1.39,1.22
6:8:59:44:270212,17.53,-14.01,-85.6,-0.0,0.18,1.48,1.49,1.39
6:8:59:44:270291,24.61,-18.83,-97.23,-0.08,0.15,1.25,1.26,1.38
6:8:59:44:270389,19.76,-23.41,-90.28,-0.12,0.13,1.23,1.25,1.33
6:8:59:44:270483,14.4,-26.79,-77.28,-0.09,0.2,1.08,1.1,1.2
6:8:59:44:270580,12.26,-29.74,-74.05,-0.15,0.17,1.0,1.03,1.13
6:8:59:45:270998,3.3,-31.82,-86.04,-0.15,0.02,0.86,0.87,1.0
6:8:59:45:271080,-6.89,-31.91,-74.35,-0.15,0.03,0.82,0.83,0.91
6:8:59:45:271175,-10.56,-33.66,-69.53,-0.17,-0.03,0.8,0.82,0.84
6:8:59:45:271302,-8.41,-37.23,-71.78,-0.21,-0.0,0.85,0.87,0.84
6:8:59:45:271367,-6.59,-39.09,-75.43,-0.17,-0.02,0.88,0.9,0.86
6:8:59:45:271478,-8.65,-39.78,-74.08,-0.17,-0.01,0.89,0.91,0.89
6:8:59:45:271591,-12.54,-38.56,-68.58,-0.16,0.01,0.89,0.91,0.9
6:8:59:46:272035,-17.56,-34.56,-48.32,-0.09,0.16,0.89,0.91,0.91
6:8:59:46:272099,-13.5,-37.91,-58.09,-0.06,0.12,0.91,0.92,0.91
6:8:59:46:272180,-9.88,-40.79,-65.03,-0.03,0.1,0.91,0.92,0.91
6:8:59:46:272292,-10.27,-43.32,-61.34,-0.03,0.14,0.89,0.9,0.91
6:8:59:46:272388,-13.69,-45.02,-51.58,-0.03,0.22,0.85,0.88,0.9
6:8:59:46:272484,-15.0,-42.69,-49.87,-0.04,0.25,0.95,0.98,0.92
6:8:59:46:272581,-9.83,-37.21,-60.03,0.07,0.2,0.99,1.01,0.96
6:8:59:47:272974,-8.89,-40.62,-60.05,-0.07,0.18,1.17,1.18,1.06
6:8:59:47:273084,-8.01,-47.79,-62.54,0.02,0.26,1.25,1.28,1.16
6:8:59:47:273196,-2.14,-54.56,-68.48,0.03,0.32,1.15,1.2,1.22
6:8:59:47:273326,5.12,-63.5,-75.82,-0.01,0.25,1.12,1.14,1.21
6:8:59:47:273390,14.64,-71.16,-85.93,-0.05,0.1,1.17,1.17,1.17
6:8:59:47:273518,12.72,-72.88,-84.8,-0.02,0.19,1.02,1.04,1.12
6:8:59:47:273596,-2.9,-68.68,-70.0,-0.05,0.2,0.99,1.01,1.07
6:8:59:49:274979,2.14,-34.88,-98.25,-0.11,0.04,0.88,0.89,0.98
6:8:59:49:275075,5.77,-34.79,-104.29,-0.06,0.15,0.88,0.9,0.93
6:8:59:49:275186,10.76,-34.11,-111.36,-0.02,0.15,0.93,0.94,0.91
6:8:59:49:275282,12.03,-34.9,-113.32,-0.0,0.22,0.88,0.91,0.91
6:8:59:49:275378,11.96,-35.87,-114.66,0.02,0.17,0.8,0.81,0.89
6:8:59:49:275474,15.61,-36.8,-118.5,-0.0,0.28,0.75,0.8,0.84
6:8:59:49:275601,13.9,-35.08,-121.97,-0.07,0.2,0.79,0.82,0.81
6:8:59:50:275989,2.79,-29.22,-115.26,-0.13,0.21,1.19,1.21,0.94
6:8:59:50:276083,1.31,-30.1,-121.24,-0.09,0.03,1.18,1.18,1.07
6:8:59:50:276195,6.97,-34.88,-123.91,-0.17,0.05,1.22,1.24,1.21
6:8:59:50:276292,13.41,-42.57,-122.95,-0.21,0.1,1.35,1.37,1.26
6:8:59:50:276387,14.16,-45.78,-123.5,-0.24,0.16,1.43,1.45,1.35
6:8:59:50:276484,22.41,-42.19,-135.54,-0.11,0.05,1.33,1.33,1.39
6:8:59:50:276579,37.69,-42.31,-150.88,-0.2,0.06,1.32,1.34,1.38
6:8:59:51:277001,29.07,-48.59,-135.77,-0.15,0.06,1.0,1.01,1.23
6:8:59:51:277080,36.17,-39.68,-146.52,-0.1,0.11,0.9,0.91,1.09
6:8:59:51:277176,42.16,-35.47,-156.92,-0.11,0.1,0.79,0.81,0.91
6:8:59:51:277272,41.75,-34.8,-160.47,-0.1,0.08,0.78,0.79,0.83
6:8:59:51:277384,38.96,-36.81,-158.33,-0.09,0.07,0.8,0.8,0.8
6:8:59:51:277479,30.22,-35.49,-152.08,-0.09,0.12,0.83,0.85,0.81
6:8:59:51:277576,21.13,-31.46,-147.3,-0.08,0.13,0.88,0.89,0.85
6:8:59:52:278016,14.82,-29.17,-149.56,-0.12,0.14,0.95,0.97,0.9
6:8:59:52:278079,13.15,-28.56,-146.7,-0.14,0.14,0.92,0.94,0.93
6:8:59:52:278176,12.09,-27.19,-144.63,-0.12,0.08,0.92,0.93,0.95
6:8:59:52:278287,13.43,-28.02,-145.39,-0.16,0.1,0.92,0.94,0.94
6:8:59:52:278384,14.5,-27.56,-148.75,-0.16,0.09,0.88,0.9,0.92
6:8:59:52:278494,12.42,-24.6,-149.67,-0.17,0.04,0.91,0.92,0.92
6:8:59:52:278591,11.61,-21.91,-149.64,-0.15,0.03,0.88,0.89,0.9
6:8:59:54:279970,41.78,-7.97,-179.19,-0.08,0.13,0.93,0.94,0.92
6:8:59:54:280066,39.68,-8.74,-178.71,-0.07,0.15,0.92,0.94,0.92
6:8:59:54:280196,39.97,-3.74,175.14,-0.06,0.14,0.87,0.89,0.92
6:8:59:54:280291,40.11,5.51,164.86,-0.04,0.06,0.85,0.85,0.89
6:8:59:54:280386,38.37,11.39,155.22,-0.06,0.09,0.85,0.85,0.86
6:8:59:54:280483,35.71,13.51,150.47,-0.05,0.09,0.87,0.87,0.86
6:8:59:54:280580,35.57,13.3,149.6,-0.06,0.12,0.87,0.88,0.87
6:8:59:55:280993,28.01,10.73,137.19,-0.13,0.13,0.94,0.96,0.91
6:8:59:55:281089,24.38,7.25,136.66,-0.1,-0.0,0.95,0.96,0.93
6:8:59:55:281186,23.16,1.41,139.88,-0.15,-0.01,0.93,0.95,0.96
6:8:59:55:281281,26.02,-2.35,145.04,-0.17,-0.02,0.9,0.92,0.94
6:8:59:55:281376,28.93,-4.24,149.98,-0.21,-0.01,0.9,0.93,0.93
6:8:59:55:281472,31.1,-4.83,154.42,-0.22,-0.02,0.91,0.94,0.93
6:8:59:55:281600,31.05,-5.36,157.89,-0.24,-0.04,0.91,0.94,0.94
6:8:59:56:281995,22.16,0.77,161.63,-0.15,-0.04,1.17,1.18,1.02
6:8:59:56:282091,29.46,3.23,162.32,-0.17,-0.08,1.02,1.04,1.05
6:8:59:56:282187,34.66,-6.74,172.41,-0.29,-0.01,1.13,1.16,1.13
6:8:59:56:282298,39.38,-15.61,-174.15,-0.24,0.08,1.11,1.14,1.11
6:8:59:56:282380,41.57,-15.57,-166.85,-0.16,0.11,1.04,1.06,1.12
6:8:59:56:282490,41.95,-10.05,-172.89,-0.15,0.1,1.05,1.06,1.09
6:8:59:56:282586,45.6,-2.39,172.96,-0.23,0.08,1.05,1.08,1.07
6:8:59:57:283027,39.35,-12.26,-169.22,-0.12,0.14,0.96,0.98,1.04
6:8:59:57:283077,36.35,-13.68,-167.2,-0.09,0.15,1.04,1.05,1.04
6:8:59:57:283173,32.89,-11.15,-165.95,-0.03,0.13,0.98,0.99,1.01
6:8:59:57:283269,29.29,-8.81,-166.8,-0.02,0.09,0.94,0.94,1.0
6:8:59:57:283381,29.67,-12.07,-164.87,-0.06,0.12,0.96,0.97,0.97
6:8:59:57:283477,27.28,-15.77,-158.21,-0.06,0.15,1.08,1.09,1.0
6:8:59:57:283573,26.81,-19.91,-152.17,-0.1,0.21,1.04,1.06,1.04
6:8:59:58:283993,-154.67,6.38,117.31,0.17,-0.38,-0.4,0.57,0.91
6:8:59:58:284088,164.83,6.46,146.97,0.01,0.48,-1.35,1.44,1.02
6:8:59:58:284184,101.06,9.2,127.57,-0.01,0.17,-0.1,0.2,0.74
6:8:59:58:284280,87.96,9.92,105.69,-0.58,0.96,0.6,1.28,0.97
6:8:59:58:284391,102.02,-7.46,96.14,-0.08,0.47,-0.09,0.49,0.65
6:8:59:58:284518,115.7,-27.74,128.09,-1.16,0.6,-0.02,1.3,1.02
6:8:59:58:284584,70.9,-61.16,-176.32,-0.5,0.19,0.2,0.57,0.79
6:8:59:59:285101,123.8,-52.13,155.32,-0.64,0.38,-0.53,0.91,0.93
6:8:59:59:285103,123.08,-49.36,155.66,-0.83,0.58,-0.21,1.03,0.84
6:8:59:59:285212,122.26,-53.37,155.72,-0.91,0.46,-0.18,1.04,1.0
6:8:59:59:285373,121.15,-53.8,156.35,-0.89,0.48,-0.19,1.03,1.03
6:8:59:59:285436,120.16,-54.7,156.79,-0.88,0.48,-0.2,1.02,1.03
6:8:59:59:285486,119.32,-55.43,157.11,-0.88,0.48,-0.19,1.02,1.02
6:8:59:59:285677,118.61,-56.01,157.31,-0.88,0.48,-0.2,1.02,1.02
6:9:0:1:286916,116.78,-57.4,157.33,-0.88,0.48,-0.19,1.02,1.02
6:9:0:1:286919,116.48,-57.6,157.22,-0.88,0.48,-0.2,1.02,1.02
6:9:0:1:286932,116.26,-57.76,157.07,-0.88,0.48,-0.2,1.02,1.02
6:9:0:1:287101,116.06,-57.88,156.87,-0.88,0.49,-0.19,1.02,1.02
6:9:0:1:287103,115.88,-57.97,156.67,-0.88,0.48,-0.2,1.02,1.02
6:9:0:1:287105,115.68,-58.06,156.52,-0.88,0.49,-0.19,1.02,1.02
6:9:0:1:287107,115.51,-58.14,156.35,-0.88,0.49,-0.19,1.02,1.02
6:9:0:1:287118,114.98,-58.35,155.62,-0.88,0.48,-0.19,1.02,1.02
6:9:0:1:287121,114.86,-58.4,155.45,-0.88,0.48,-0.19,1.02,1.02
6:9:0:1:287214,114.68,-58.46,155.37,-0.88,0.48,-0.2,1.02,1.02
6:9:0:1:287324,114.59,-58.49,155.2,-0.88,0.48,-0.19,1.02,1.02
6:9:0:1:287485,114.48,-58.52,155.05,-0.88,0.48,-0.19,1.02,1.02
